"Participant","Illusion_Type","Illusion_Difference","Illusion_Strength","File","Block","Trial","ISI","RT","Response","Response_Correct","Error","Illusion_Effect","Task_Difficulty","Condition_Illusion","Condition_Difficulty"
"S002","MullerLyer",-0.18509,-21,"MullerLyer_-21.000_-0.18509","A",1,140494,1.074,"ArrowDown","true",0,"Congruent",0.18509,"Congruent - Strong","Hard"
"S002","MullerLyer",0.30447,-15,"MullerLyer_-15.000_0.30447","A",2,142272,0.468,"ArrowUp","true",0,"Congruent",0.30447,"Congruent - Mild","Easy"
"S002","MullerLyer",0.18509,-15,"MullerLyer_-15.000_0.18509","A",3,143523,0.578,"ArrowUp","true",0,"Congruent",0.18509,"Congruent - Mild","Hard"
"S002","MullerLyer",0.30447,-21,"MullerLyer_-21.000_0.30447","A",4,144909,0.502,"ArrowUp","true",0,"Congruent",0.30447,"Congruent - Strong","Easy"
"S002","MullerLyer",0.30447,-9,"MullerLyer_-9.0000_0.30447","A",5,146089,0.659,"ArrowUp","true",0,"Congruent",0.30447,"Congruent - Mild","Easy"
"S002","MullerLyer",-0.45,21,"MullerLyer_21.0000_-0.4500","A",6,147770,0.5,"ArrowDown","true",0,"Incongruent",0.45,"Incongruent - Strong","Easy"
"S002","MullerLyer",-0.08716,-9,"MullerLyer_-9.0000_-0.08716","A",7,149070,0.436,"ArrowDown","true",0,"Congruent",0.08716,"Congruent - Mild","Hard"
"S002","MullerLyer",-0.45,-15,"MullerLyer_-15.000_-0.4500","A",8,150126,0.718,"ArrowDown","true",0,"Congruent",0.45,"Congruent - Mild","Easy"
"S002","MullerLyer",0.08716,15,"MullerLyer_15.0000_0.08716","A",9,151906,0.231,"ArrowDown","false",1,"Incongruent",0.08716,"Incongruent - Mild","Hard"
"S002","MullerLyer",-0.08716,9,"MullerLyer_9.00000_-0.08716","A",10,152921,0.789,"ArrowUp","false",1,"Incongruent",0.08716,"Incongruent - Mild","Hard"
"S002","MullerLyer",-0.30447,21,"MullerLyer_21.0000_-0.30447","A",11,154391,0.773,"ArrowUp","false",1,"Incongruent",0.30447,"Incongruent - Strong","Easy"
"S002","MullerLyer",-0.45,-9,"MullerLyer_-9.0000_-0.4500","A",12,156177,0.404,"ArrowDown","true",0,"Congruent",0.45,"Congruent - Mild","Easy"
"S002","MullerLyer",0.08716,27,"MullerLyer_27.0000_0.08716","A",13,157532,0.354,"ArrowDown","false",1,"Incongruent",0.08716,"Incongruent - Strong","Hard"
"S002","MullerLyer",0.45,27,"MullerLyer_27.0000_0.45000","A",14,158522,0.495,"ArrowUp","true",0,"Incongruent",0.45,"Incongruent - Strong","Easy"
"S002","MullerLyer",0.30447,9,"MullerLyer_9.00000_0.30447","A",15,159909,0.551,"ArrowUp","true",0,"Incongruent",0.30447,"Incongruent - Mild","Easy"
"S002","MullerLyer",-0.45,15,"MullerLyer_15.0000_-0.4500","A",16,161541,0.465,"ArrowDown","true",0,"Incongruent",0.45,"Incongruent - Mild","Easy"
"S002","MullerLyer",-0.18509,-9,"MullerLyer_-9.0000_-0.18509","A",17,162836,0.458,"ArrowDown","true",0,"Congruent",0.18509,"Congruent - Mild","Hard"
"S002","MullerLyer",-0.18509,-27,"MullerLyer_-27.000_-0.18509","A",18,164094,0.53,"ArrowDown","true",0,"Congruent",0.18509,"Congruent - Strong","Hard"
"S002","MullerLyer",-0.30447,9,"MullerLyer_9.00000_-0.30447","A",19,165592,0.39,"ArrowDown","true",0,"Incongruent",0.30447,"Incongruent - Mild","Easy"
"S002","MullerLyer",0.18509,9,"MullerLyer_9.00000_0.18509","A",20,166594,0.564,"ArrowUp","true",0,"Incongruent",0.18509,"Incongruent - Mild","Hard"
"S002","MullerLyer",0.30447,21,"MullerLyer_21.0000_0.30447","A",21,167774,0.577,"ArrowUp","true",0,"Incongruent",0.30447,"Incongruent - Strong","Easy"
"S002","MullerLyer",0.45,-9,"MullerLyer_-9.0000_0.45000","A",22,169413,0.695,"ArrowUp","true",0,"Congruent",0.45,"Congruent - Mild","Easy"
"S002","MullerLyer",-0.30447,-21,"MullerLyer_-21.000_-0.30447","A",23,170739,0.285,"ArrowDown","true",0,"Congruent",0.30447,"Congruent - Strong","Easy"
"S002","MullerLyer",-0.45,-3,"MullerLyer_-3.0000_-0.4500","A",24,171683,0.542,"ArrowDown","true",0,"Congruent",0.45,"Congruent - Mild","Easy"
"S002","MullerLyer",0.18509,-3,"MullerLyer_-3.0000_0.18509","A",25,172841,0.467,"ArrowUp","true",0,"Congruent",0.18509,"Congruent - Mild","Hard"
"S002","MullerLyer",0.18509,-9,"MullerLyer_-9.0000_0.18509","A",26,173733,0.656,"ArrowUp","true",0,"Congruent",0.18509,"Congruent - Mild","Hard"
"S002","MullerLyer",-0.30447,15,"MullerLyer_15.0000_-0.30447","A",27,175123,0.271,"ArrowDown","true",0,"Incongruent",0.30447,"Incongruent - Mild","Easy"
"S002","MullerLyer",0.30447,15,"MullerLyer_15.0000_0.30447","A",28,176128,0.547,"ArrowUp","true",0,"Incongruent",0.30447,"Incongruent - Mild","Easy"
"S002","MullerLyer",0.30447,-3,"MullerLyer_-3.0000_0.30447","A",29,177320,0.678,"ArrowUp","true",0,"Congruent",0.30447,"Congruent - Mild","Easy"
"S002","MullerLyer",-0.18509,15,"MullerLyer_15.0000_-0.18509","A",30,178917,0.703,"ArrowDown","true",0,"Incongruent",0.18509,"Incongruent - Mild","Hard"
"S002","MullerLyer",0.30447,-27,"MullerLyer_-27.000_0.30447","A",31,180668,0.358,"ArrowUp","true",0,"Congruent",0.30447,"Congruent - Strong","Easy"
"S002","MullerLyer",-0.08716,-3,"MullerLyer_-3.0000_-0.08716","A",32,182079,0.374,"ArrowUp","false",1,"Congruent",0.08716,"Congruent - Mild","Hard"
"S002","MullerLyer",-0.30447,27,"MullerLyer_27.0000_-0.30447","A",33,183316,0.554,"ArrowDown","true",0,"Incongruent",0.30447,"Incongruent - Strong","Easy"
"S002","MullerLyer",-0.45,-21,"MullerLyer_-21.000_-0.4500","A",34,184923,0.532,"ArrowDown","true",0,"Congruent",0.45,"Congruent - Strong","Easy"
"S002","MullerLyer",0.45,-3,"MullerLyer_-3.0000_0.45000","A",35,186082,0.502,"ArrowUp","true",0,"Congruent",0.45,"Congruent - Mild","Easy"
"S002","MullerLyer",-0.30447,-9,"MullerLyer_-9.0000_-0.30447","A",36,187560,0.351,"ArrowDown","true",0,"Congruent",0.30447,"Congruent - Mild","Easy"
"S002","MullerLyer",0.45,9,"MullerLyer_9.00000_0.45000","A",37,188749,0.306,"ArrowDown","false",1,"Incongruent",0.45,"Incongruent - Mild","Easy"
"S002","MullerLyer",0.08716,-3,"MullerLyer_-3.0000_0.08716","A",38,190076,0.241,"ArrowUp","true",0,"Congruent",0.08716,"Congruent - Mild","Hard"
"S002","MullerLyer",0.45,-27,"MullerLyer_-27.000_0.45000","A",39,190987,0.332,"ArrowUp","true",0,"Congruent",0.45,"Congruent - Strong","Easy"
"S002","MullerLyer",-0.18509,-15,"MullerLyer_-15.000_-0.18509","A",40,191936,0.429,"ArrowDown","true",0,"Congruent",0.18509,"Congruent - Mild","Hard"
"S002","MullerLyer",0.08716,-15,"MullerLyer_-15.000_0.08716","A",41,193310,0.256,"ArrowUp","true",0,"Congruent",0.08716,"Congruent - Mild","Hard"
"S002","MullerLyer",0.18509,-27,"MullerLyer_-27.000_0.18509","A",42,194554,0.245,"ArrowUp","true",0,"Congruent",0.18509,"Congruent - Strong","Hard"
"S002","MullerLyer",-0.45,-27,"MullerLyer_-27.000_-0.4500","A",43,195670,0.307,"ArrowUp","false",1,"Congruent",0.45,"Congruent - Strong","Easy"
"S002","MullerLyer",-0.45,3,"MullerLyer_3.00000_-0.4500","A",44,196721,0.425,"ArrowDown","true",0,"Incongruent",0.45,"Incongruent - Mild","Easy"
"S002","MullerLyer",-0.08716,21,"MullerLyer_21.0000_-0.08716","A",45,197806,0.565,"ArrowUp","false",1,"Incongruent",0.08716,"Incongruent - Strong","Hard"
"S002","MullerLyer",-0.45,9,"MullerLyer_9.00000_-0.4500","A",46,199022,0.654,"ArrowDown","true",0,"Incongruent",0.45,"Incongruent - Mild","Easy"
"S002","MullerLyer",0.18509,21,"MullerLyer_21.0000_0.18509","A",47,200315,0.382,"ArrowDown","false",1,"Incongruent",0.18509,"Incongruent - Strong","Hard"
"S002","MullerLyer",-0.18509,27,"MullerLyer_27.0000_-0.18509","A",48,201413,0.506,"ArrowUp","false",1,"Incongruent",0.18509,"Incongruent - Strong","Hard"
"S002","MullerLyer",0.18509,3,"MullerLyer_3.00000_0.18509","A",49,203021,0.633,"ArrowUp","true",0,"Incongruent",0.18509,"Incongruent - Mild","Hard"
"S002","MullerLyer",-0.18509,9,"MullerLyer_9.00000_-0.18509","A",50,204291,0.508,"ArrowUp","false",1,"Incongruent",0.18509,"Incongruent - Mild","Hard"
"S002","MullerLyer",0.18509,27,"MullerLyer_27.0000_0.18509","A",51,205454,0.77,"ArrowDown","false",1,"Incongruent",0.18509,"Incongruent - Strong","Hard"
"S002","MullerLyer",0.08716,21,"MullerLyer_21.0000_0.08716","A",52,207073,NA,"","false",1,"Incongruent",0.08716,"Incongruent - Strong","Hard"
"S002","MullerLyer",-0.18509,-3,"MullerLyer_-3.0000_-0.18509","A",53,209139,6.946,"ArrowDown","true",0,"Congruent",0.18509,"Congruent - Mild","Hard"
"S002","MullerLyer",-0.08716,-21,"MullerLyer_-21.000_-0.08716","A",54,215088,3.64,"ArrowDown","true",0,"Congruent",0.08716,"Congruent - Strong","Hard"
"S002","MullerLyer",-0.30447,-27,"MullerLyer_-27.000_-0.30447","A",55,219773,1.903,"ArrowDown","true",0,"Congruent",0.30447,"Congruent - Strong","Easy"
"S002","MullerLyer",-0.08716,15,"MullerLyer_15.0000_-0.08716","A",56,222761,0.337,"ArrowDown","true",0,"Incongruent",0.08716,"Incongruent - Mild","Hard"
"S002","MullerLyer",0.18509,-21,"MullerLyer_-21.000_0.18509","A",57,224084,0.318,"ArrowDown","false",1,"Congruent",0.18509,"Congruent - Strong","Hard"
"S002","MullerLyer",-0.08716,27,"MullerLyer_27.0000_-0.08716","A",58,225462,0.264,"ArrowUp","false",1,"Incongruent",0.08716,"Incongruent - Strong","Hard"
"S002","MullerLyer",0.45,21,"MullerLyer_21.0000_0.45000","A",59,226396,0.505,"ArrowUp","true",0,"Incongruent",0.45,"Incongruent - Strong","Easy"
"S002","MullerLyer",0.08716,-27,"MullerLyer_-27.000_0.08716","A",60,228011,0.344,"ArrowUp","true",0,"Congruent",0.08716,"Congruent - Strong","Hard"
"S002","MullerLyer",0.30447,27,"MullerLyer_27.0000_0.30447","A",61,229367,0.506,"ArrowDown","false",1,"Incongruent",0.30447,"Incongruent - Strong","Easy"
"S002","MullerLyer",0.45,-15,"MullerLyer_-15.000_0.45000","A",62,230936,0.374,"ArrowUp","true",0,"Congruent",0.45,"Congruent - Mild","Easy"
"S002","MullerLyer",-0.08716,3,"MullerLyer_3.00000_-0.08716","A",63,232028,0.577,"ArrowDown","true",0,"Incongruent",0.08716,"Incongruent - Mild","Hard"
"S002","MullerLyer",-0.45,27,"MullerLyer_27.0000_-0.4500","A",64,233390,0.272,"ArrowUp","false",1,"Incongruent",0.45,"Incongruent - Strong","Easy"
"S002","MullerLyer",0.45,-21,"MullerLyer_-21.000_0.45000","A",65,234420,0.311,"ArrowDown","false",1,"Congruent",0.45,"Congruent - Strong","Easy"
"S002","MullerLyer",-0.18509,3,"MullerLyer_3.00000_-0.18509","A",66,235611,0.464,"ArrowUp","false",1,"Incongruent",0.18509,"Incongruent - Mild","Hard"
"S002","MullerLyer",0.08716,3,"MullerLyer_3.00000_0.08716","A",67,236788,0.571,"ArrowUp","true",0,"Incongruent",0.08716,"Incongruent - Mild","Hard"
"S002","MullerLyer",0.30447,3,"MullerLyer_3.00000_0.30447","A",68,238429,0.244,"ArrowUp","true",0,"Incongruent",0.30447,"Incongruent - Mild","Easy"
"S002","MullerLyer",0.08716,-9,"MullerLyer_-9.0000_0.08716","A",69,239404,0.266,"ArrowUp","true",0,"Congruent",0.08716,"Congruent - Mild","Hard"
"S002","MullerLyer",0.45,3,"MullerLyer_3.00000_0.45000","A",70,240601,0.254,"ArrowUp","true",0,"Incongruent",0.45,"Incongruent - Mild","Easy"
"S002","MullerLyer",-0.30447,3,"MullerLyer_3.00000_-0.30447","A",71,241879,0.302,"ArrowUp","false",1,"Incongruent",0.30447,"Incongruent - Mild","Easy"
"S002","MullerLyer",-0.08716,-15,"MullerLyer_-15.000_-0.08716","A",72,242970,0.234,"ArrowDown","true",0,"Congruent",0.08716,"Congruent - Mild","Hard"
"S002","MullerLyer",-0.18509,21,"MullerLyer_21.0000_-0.18509","A",73,244098,0.209,"ArrowDown","true",0,"Incongruent",0.18509,"Incongruent - Strong","Hard"
"S002","MullerLyer",-0.08716,-27,"MullerLyer_-27.000_-0.08716","A",74,245313,0.246,"ArrowUp","false",1,"Congruent",0.08716,"Congruent - Strong","Hard"
"S002","MullerLyer",-0.30447,-3,"MullerLyer_-3.0000_-0.30447","A",75,246311,0.253,"ArrowUp","false",1,"Congruent",0.30447,"Congruent - Mild","Easy"
"S002","MullerLyer",-0.30447,-15,"MullerLyer_-15.000_-0.30447","A",76,247607,0.211,"ArrowUp","false",1,"Congruent",0.30447,"Congruent - Mild","Easy"
"S002","MullerLyer",0.08716,9,"MullerLyer_9.00000_0.08716","A",77,248836,0.591,"ArrowUp","true",0,"Incongruent",0.08716,"Incongruent - Mild","Hard"
"S002","MullerLyer",0.18509,15,"MullerLyer_15.0000_0.18509","A",78,250299,0.574,"ArrowUp","true",0,"Incongruent",0.18509,"Incongruent - Mild","Hard"
"S002","MullerLyer",0.45,15,"MullerLyer_15.0000_0.45000","A",79,251757,0.647,"ArrowUp","true",0,"Incongruent",0.45,"Incongruent - Mild","Easy"
"S002","MullerLyer",0.08716,-21,"MullerLyer_-21.000_0.08716","A",80,253211,0.595,"ArrowUp","true",0,"Congruent",0.08716,"Congruent - Strong","Hard"
"S002","Ebbinghaus",0.3383,0.15,"Ebbinghaus_0.15000_0.33830","A",1,258183,0.466,"ArrowRight","false",1,"Incongruent",0.3383,"Incongruent - Mild","Easy"
"S002","Ebbinghaus",-0.3383,0.45,"Ebbinghaus_0.45000_-0.3383","A",2,259709,0.423,"ArrowRight","true",0,"Incongruent",0.3383,"Incongruent - Mild","Easy"
"S002","Ebbinghaus",0.09684,-1.05,"Ebbinghaus_-1.0500_0.09684","A",3,260769,0.482,"ArrowRight","false",1,"Congruent",0.09684,"Congruent - Strong","Hard"
"S002","Ebbinghaus",-0.5,1.05,"Ebbinghaus_1.05000_-0.5000","A",4,261971,0.525,"ArrowRight","true",0,"Incongruent",0.5,"Incongruent - Strong","Easy"
"S002","Ebbinghaus",-0.5,1.35,"Ebbinghaus_1.35000_-0.5000","A",5,263341,0.304,"ArrowLeft","false",1,"Incongruent",0.5,"Incongruent - Strong","Easy"
"S002","Ebbinghaus",0.20566,-0.45,"Ebbinghaus_-0.4500_0.20566","A",6,264602,0.489,"ArrowRight","false",1,"Congruent",0.20566,"Congruent - Mild","Hard"
"S002","Ebbinghaus",0.09684,-0.45,"Ebbinghaus_-0.4500_0.09684","A",7,266095,0.5,"ArrowRight","false",1,"Congruent",0.09684,"Congruent - Mild","Hard"
"S002","Ebbinghaus",-0.09684,0.75,"Ebbinghaus_0.75000_-0.09684","A",8,267320,0.53,"ArrowRight","true",0,"Incongruent",0.09684,"Incongruent - Mild","Hard"
"S002","Ebbinghaus",-0.20566,-0.45,"Ebbinghaus_-0.4500_-0.20566","A",9,268566,0.449,"ArrowRight","true",0,"Congruent",0.20566,"Congruent - Mild","Hard"
"S002","Ebbinghaus",-0.09684,-1.05,"Ebbinghaus_-1.0500_-0.09684","A",10,269836,0.571,"ArrowRight","true",0,"Congruent",0.09684,"Congruent - Strong","Hard"
"S002","Ebbinghaus",0.5,0.15,"Ebbinghaus_0.15000_0.50000","A",11,271347,0.448,"ArrowLeft","true",0,"Incongruent",0.5,"Incongruent - Mild","Easy"
"S002","Ebbinghaus",0.3383,-0.75,"Ebbinghaus_-0.7500_0.33830","A",12,272667,0.493,"ArrowLeft","true",0,"Congruent",0.3383,"Congruent - Mild","Easy"
"S002","Ebbinghaus",-0.3383,-0.75,"Ebbinghaus_-0.7500_-0.3383","A",13,274012,0.463,"ArrowRight","true",0,"Congruent",0.3383,"Congruent - Mild","Easy"
"S002","Ebbinghaus",-0.5,0.75,"Ebbinghaus_0.75000_-0.5000","A",14,275330,0.528,"ArrowRight","true",0,"Incongruent",0.5,"Incongruent - Mild","Easy"
"S002","Ebbinghaus",-0.3383,-0.15,"Ebbinghaus_-0.1500_-0.3383","A",15,276664,0.465,"ArrowRight","true",0,"Congruent",0.3383,"Congruent - Mild","Easy"
"S002","Ebbinghaus",0.5,-1.35,"Ebbinghaus_-1.3500_0.50000","A",16,278094,0.4,"ArrowLeft","true",0,"Congruent",0.5,"Congruent - Strong","Easy"
"S002","Ebbinghaus",-0.20566,0.75,"Ebbinghaus_0.75000_-0.20566","A",17,279279,0.502,"ArrowRight","true",0,"Incongruent",0.20566,"Incongruent - Mild","Hard"
"S002","Ebbinghaus",-0.09684,0.45,"Ebbinghaus_0.45000_-0.09684","A",18,280408,0.471,"ArrowRight","true",0,"Incongruent",0.09684,"Incongruent - Mild","Hard"
"S002","Ebbinghaus",-0.09684,0.15,"Ebbinghaus_0.15000_-0.09684","A",19,281787,0.457,"ArrowRight","true",0,"Incongruent",0.09684,"Incongruent - Mild","Hard"
"S002","Ebbinghaus",0.09684,-0.15,"Ebbinghaus_-0.1500_0.09684","A",20,283060,0.652,"ArrowLeft","true",0,"Congruent",0.09684,"Congruent - Mild","Hard"
"S002","Ebbinghaus",-0.5,0.15,"Ebbinghaus_0.15000_-0.5000","A",21,284575,0.475,"ArrowRight","true",0,"Incongruent",0.5,"Incongruent - Mild","Easy"
"S002","Ebbinghaus",-0.20566,-0.15,"Ebbinghaus_-0.1500_-0.20566","A",22,286130,0.465,"ArrowRight","true",0,"Congruent",0.20566,"Congruent - Mild","Hard"
"S002","Ebbinghaus",-0.20566,-1.35,"Ebbinghaus_-1.3500_-0.20566","A",23,287474,0.466,"ArrowRight","true",0,"Congruent",0.20566,"Congruent - Strong","Hard"
"S002","Ebbinghaus",0.09684,0.45,"Ebbinghaus_0.45000_0.09684","A",24,288614,0.691,"ArrowLeft","true",0,"Incongruent",0.09684,"Incongruent - Mild","Hard"
"S002","Ebbinghaus",0.20566,-0.75,"Ebbinghaus_-0.7500_0.20566","A",25,290358,0.674,"ArrowLeft","true",0,"Congruent",0.20566,"Congruent - Mild","Hard"
"S002","Ebbinghaus",0.5,-0.45,"Ebbinghaus_-0.4500_0.50000","A",26,291846,0.519,"ArrowLeft","true",0,"Congruent",0.5,"Congruent - Mild","Easy"
"S002","Ebbinghaus",-0.20566,0.15,"Ebbinghaus_0.15000_-0.20566","A",27,293441,0.649,"ArrowRight","true",0,"Incongruent",0.20566,"Incongruent - Mild","Hard"
"S002","Ebbinghaus",0.20566,-1.05,"Ebbinghaus_-1.0500_0.20566","A",28,294962,0.544,"ArrowLeft","true",0,"Congruent",0.20566,"Congruent - Strong","Hard"
"S002","Ebbinghaus",0.3383,-1.35,"Ebbinghaus_-1.3500_0.33830","A",29,296398,0.479,"ArrowLeft","true",0,"Congruent",0.3383,"Congruent - Strong","Easy"
"S002","Ebbinghaus",0.3383,0.45,"Ebbinghaus_0.45000_0.33830","A",30,297749,0.45,"ArrowLeft","true",0,"Incongruent",0.3383,"Incongruent - Mild","Easy"
"S002","Ebbinghaus",0.3383,-0.15,"Ebbinghaus_-0.1500_0.33830","A",31,299059,0.492,"ArrowLeft","true",0,"Congruent",0.3383,"Congruent - Mild","Easy"
"S002","Ebbinghaus",0.09684,1.35,"Ebbinghaus_1.35000_0.09684","A",32,300398,0.465,"ArrowRight","false",1,"Incongruent",0.09684,"Incongruent - Strong","Hard"
"S002","Ebbinghaus",0.5,1.05,"Ebbinghaus_1.05000_0.50000","A",33,301610,0.431,"ArrowLeft","true",0,"Incongruent",0.5,"Incongruent - Strong","Easy"
"S002","Ebbinghaus",0.20566,0.75,"Ebbinghaus_0.75000_0.20566","A",34,302879,0.437,"ArrowRight","false",1,"Incongruent",0.20566,"Incongruent - Mild","Hard"
"S002","Ebbinghaus",0.3383,1.35,"Ebbinghaus_1.35000_0.33830","A",35,304210,0.364,"ArrowLeft","true",0,"Incongruent",0.3383,"Incongruent - Strong","Easy"
"S002","Ebbinghaus",0.20566,1.35,"Ebbinghaus_1.35000_0.20566","A",36,305297,0.524,"ArrowRight","false",1,"Incongruent",0.20566,"Incongruent - Strong","Hard"
"S002","Ebbinghaus",-0.3383,-1.35,"Ebbinghaus_-1.3500_-0.3383","A",37,306744,0.423,"ArrowRight","true",0,"Congruent",0.3383,"Congruent - Strong","Easy"
"S002","Ebbinghaus",-0.20566,1.35,"Ebbinghaus_1.35000_-0.20566","A",38,307860,0.464,"ArrowLeft","false",1,"Incongruent",0.20566,"Incongruent - Strong","Hard"
"S002","Ebbinghaus",0.3383,1.05,"Ebbinghaus_1.05000_0.33830","A",39,309306,0.56,"ArrowLeft","true",0,"Incongruent",0.3383,"Incongruent - Strong","Easy"
"S002","Ebbinghaus",0.5,-0.15,"Ebbinghaus_-0.1500_0.50000","A",40,310775,0.461,"ArrowLeft","true",0,"Congruent",0.5,"Congruent - Mild","Easy"
"S002","Ebbinghaus",0.5,0.45,"Ebbinghaus_0.45000_0.50000","A",41,312255,0.422,"ArrowLeft","true",0,"Incongruent",0.5,"Incongruent - Mild","Easy"
"S002","Ebbinghaus",-0.5,-0.15,"Ebbinghaus_-0.1500_-0.5000","A",42,313323,0.472,"ArrowRight","true",0,"Congruent",0.5,"Congruent - Mild","Easy"
"S002","Ebbinghaus",0.20566,-0.15,"Ebbinghaus_-0.1500_0.20566","A",43,314522,0.582,"ArrowRight","false",1,"Congruent",0.20566,"Congruent - Mild","Hard"
"S002","Ebbinghaus",-0.5,-0.45,"Ebbinghaus_-0.4500_-0.5000","A",44,316079,0.478,"ArrowRight","true",0,"Congruent",0.5,"Congruent - Mild","Easy"
"S002","Ebbinghaus",-0.20566,0.45,"Ebbinghaus_0.45000_-0.20566","A",45,317471,0.414,"ArrowRight","true",0,"Incongruent",0.20566,"Incongruent - Mild","Hard"
"S002","Ebbinghaus",0.3383,0.75,"Ebbinghaus_0.75000_0.33830","A",46,318852,0.482,"ArrowLeft","true",0,"Incongruent",0.3383,"Incongruent - Mild","Easy"
"S002","Ebbinghaus",-0.09684,1.05,"Ebbinghaus_1.05000_-0.09684","A",47,320362,0.292,"ArrowRight","true",0,"Incongruent",0.09684,"Incongruent - Strong","Hard"
"S002","Ebbinghaus",0.09684,1.05,"Ebbinghaus_1.05000_0.09684","A",48,321723,0.474,"ArrowLeft","true",0,"Incongruent",0.09684,"Incongruent - Strong","Hard"
"S002","Ebbinghaus",0.3383,-1.05,"Ebbinghaus_-1.0500_0.33830","A",49,323174,0.889,"ArrowLeft","true",0,"Congruent",0.3383,"Congruent - Strong","Easy"
"S002","Ebbinghaus",-0.20566,-0.75,"Ebbinghaus_-0.7500_-0.20566","A",50,324889,0.441,"ArrowRight","true",0,"Congruent",0.20566,"Congruent - Mild","Hard"
"S002","Ebbinghaus",-0.20566,-1.05,"Ebbinghaus_-1.0500_-0.20566","A",51,326184,0.384,"ArrowRight","true",0,"Congruent",0.20566,"Congruent - Strong","Hard"
"S002","Ebbinghaus",-0.09684,-0.15,"Ebbinghaus_-0.1500_-0.09684","A",52,327354,0.37,"ArrowRight","true",0,"Congruent",0.09684,"Congruent - Mild","Hard"
"S002","Ebbinghaus",-0.3383,-0.45,"Ebbinghaus_-0.4500_-0.3383","A",53,328441,0.499,"ArrowRight","true",0,"Congruent",0.3383,"Congruent - Mild","Easy"
"S002","Ebbinghaus",-0.5,-1.05,"Ebbinghaus_-1.0500_-0.5000","A",54,329998,0.4,"ArrowRight","true",0,"Congruent",0.5,"Congruent - Strong","Easy"
"S002","Ebbinghaus",-0.3383,1.05,"Ebbinghaus_1.05000_-0.3383","A",55,331397,0.444,"ArrowRight","true",0,"Incongruent",0.3383,"Incongruent - Strong","Easy"
"S002","Ebbinghaus",0.5,-1.05,"Ebbinghaus_-1.0500_0.50000","A",56,332786,0.427,"ArrowLeft","true",0,"Congruent",0.5,"Congruent - Strong","Easy"
"S002","Ebbinghaus",0.20566,0.45,"Ebbinghaus_0.45000_0.20566","A",57,334034,0.562,"ArrowLeft","true",0,"Incongruent",0.20566,"Incongruent - Mild","Hard"
"S002","Ebbinghaus",0.09684,-0.75,"Ebbinghaus_-0.7500_0.09684","A",58,335417,0.676,"ArrowLeft","true",0,"Congruent",0.09684,"Congruent - Mild","Hard"
"S002","Ebbinghaus",-0.5,0.45,"Ebbinghaus_0.45000_-0.5000","A",59,336744,1.033,"ArrowRight","true",0,"Incongruent",0.5,"Incongruent - Mild","Easy"
"S002","Ebbinghaus",-0.09684,-0.75,"Ebbinghaus_-0.7500_-0.09684","A",60,338615,0.572,"ArrowRight","true",0,"Congruent",0.09684,"Congruent - Mild","Hard"
"S002","Ebbinghaus",-0.3383,-1.05,"Ebbinghaus_-1.0500_-0.3383","A",61,339873,0.51,"ArrowRight","true",0,"Congruent",0.3383,"Congruent - Strong","Easy"
"S002","Ebbinghaus",-0.09684,-1.35,"Ebbinghaus_-1.3500_-0.09684","A",62,341376,0.514,"ArrowRight","true",0,"Congruent",0.09684,"Congruent - Strong","Hard"
"S002","Ebbinghaus",-0.3383,1.35,"Ebbinghaus_1.35000_-0.3383","A",63,342754,0.498,"ArrowLeft","false",1,"Incongruent",0.3383,"Incongruent - Strong","Easy"
"S002","Ebbinghaus",0.5,-0.75,"Ebbinghaus_-0.7500_0.50000","A",64,344301,0.415,"ArrowLeft","true",0,"Congruent",0.5,"Congruent - Mild","Easy"
"S002","Ebbinghaus",-0.20566,1.05,"Ebbinghaus_1.05000_-0.20566","A",65,345679,0.604,"ArrowLeft","false",1,"Incongruent",0.20566,"Incongruent - Strong","Hard"
"S002","Ebbinghaus",-0.3383,0.75,"Ebbinghaus_0.75000_-0.3383","A",66,346993,0.613,"ArrowRight","true",0,"Incongruent",0.3383,"Incongruent - Mild","Easy"
"S002","Ebbinghaus",0.5,1.35,"Ebbinghaus_1.35000_0.50000","A",67,348571,0.293,"ArrowRight","false",1,"Incongruent",0.5,"Incongruent - Strong","Easy"
"S002","Ebbinghaus",0.3383,-0.45,"Ebbinghaus_-0.4500_0.33830","A",68,349554,0.59,"ArrowRight","false",1,"Congruent",0.3383,"Congruent - Mild","Easy"
"S002","Ebbinghaus",0.20566,0.15,"Ebbinghaus_0.15000_0.20566","A",69,350931,0.66,"ArrowLeft","true",0,"Incongruent",0.20566,"Incongruent - Mild","Hard"
"S002","Ebbinghaus",0.09684,-1.35,"Ebbinghaus_-1.3500_0.09684","A",70,352233,0.591,"ArrowLeft","true",0,"Congruent",0.09684,"Congruent - Strong","Hard"
"S002","Ebbinghaus",0.5,0.75,"Ebbinghaus_0.75000_0.50000","A",71,353442,0.449,"ArrowLeft","true",0,"Incongruent",0.5,"Incongruent - Mild","Easy"
"S002","Ebbinghaus",0.09684,0.15,"Ebbinghaus_0.15000_0.09684","A",72,354598,0.391,"ArrowLeft","true",0,"Incongruent",0.09684,"Incongruent - Mild","Hard"
"S002","Ebbinghaus",-0.3383,0.15,"Ebbinghaus_0.15000_-0.3383","A",73,355972,0.288,"ArrowLeft","false",1,"Incongruent",0.3383,"Incongruent - Mild","Easy"
"S002","Ebbinghaus",-0.09684,-0.45,"Ebbinghaus_-0.4500_-0.09684","A",74,356921,0.62,"ArrowRight","true",0,"Congruent",0.09684,"Congruent - Mild","Hard"
"S002","Ebbinghaus",-0.09684,1.35,"Ebbinghaus_1.35000_-0.09684","A",75,358492,0.518,"ArrowLeft","false",1,"Incongruent",0.09684,"Incongruent - Strong","Hard"
"S002","Ebbinghaus",0.20566,-1.35,"Ebbinghaus_-1.3500_0.20566","A",76,360016,0.419,"ArrowLeft","true",0,"Congruent",0.20566,"Congruent - Strong","Hard"
"S002","Ebbinghaus",0.09684,0.75,"Ebbinghaus_0.75000_0.09684","A",77,361513,0.526,"ArrowLeft","true",0,"Incongruent",0.09684,"Incongruent - Mild","Hard"
"S002","Ebbinghaus",0.20566,1.05,"Ebbinghaus_1.05000_0.20566","A",78,363081,0.472,"ArrowLeft","true",0,"Incongruent",0.20566,"Incongruent - Strong","Hard"
"S002","Ebbinghaus",-0.5,-1.35,"Ebbinghaus_-1.3500_-0.5000","A",79,364321,0.293,"ArrowLeft","false",1,"Congruent",0.5,"Congruent - Strong","Easy"
"S002","Ebbinghaus",-0.5,-0.75,"Ebbinghaus_-0.7500_-0.5000","A",80,365299,0.488,"ArrowRight","true",0,"Congruent",0.5,"Congruent - Mild","Easy"
"S002","VerticalHorizontal",-0.0581,4.5,"VerticalHorizontal_4.50000_-0.0581","A",1,370295,1.169,"ArrowRight","true",0,"Incongruent",0.0581,"Incongruent - Mild","Hard"
"S002","VerticalHorizontal",0.0581,13.5,"VerticalHorizontal_13.5000_0.05810","A",2,372179,0.615,"ArrowLeft","true",0,"Incongruent",0.0581,"Incongruent - Mild","Hard"
"S002","VerticalHorizontal",0.20298,4.5,"VerticalHorizontal_4.50000_0.20298","A",3,373616,0.384,"ArrowLeft","true",0,"Incongruent",0.20298,"Incongruent - Mild","Easy"
"S002","VerticalHorizontal",-0.20298,31.5,"VerticalHorizontal_31.5000_-0.20298","A",4,375066,0.439,"ArrowLeft","false",1,"Incongruent",0.20298,"Incongruent - Strong","Easy"
"S002","VerticalHorizontal",0.12339,-13.5,"VerticalHorizontal_-13.500_0.12339","A",5,376524,0.408,"ArrowLeft","true",0,"Congruent",0.12339,"Congruent - Mild","Hard"
"S002","VerticalHorizontal",-0.0581,13.5,"VerticalHorizontal_13.5000_-0.0581","A",6,377625,0.672,"ArrowRight","true",0,"Incongruent",0.0581,"Incongruent - Mild","Hard"
"S002","VerticalHorizontal",-0.0581,-4.5,"VerticalHorizontal_-4.5000_-0.0581","A",7,379124,0.596,"ArrowRight","true",0,"Congruent",0.0581,"Congruent - Mild","Hard"
"S002","VerticalHorizontal",0.20298,31.5,"VerticalHorizontal_31.5000_0.20298","A",8,380665,0.615,"ArrowLeft","true",0,"Incongruent",0.20298,"Incongruent - Strong","Easy"
"S002","VerticalHorizontal",0.3,-13.5,"VerticalHorizontal_-13.500_0.30000","A",9,382004,0.491,"ArrowLeft","true",0,"Congruent",0.3,"Congruent - Mild","Easy"
"S002","VerticalHorizontal",-0.0581,22.5,"VerticalHorizontal_22.5000_-0.0581","A",10,383371,0.483,"ArrowLeft","false",1,"Incongruent",0.0581,"Incongruent - Mild","Hard"
"S002","VerticalHorizontal",0.12339,31.5,"VerticalHorizontal_31.5000_0.12339","A",11,384859,0.312,"ArrowRight","false",1,"Incongruent",0.12339,"Incongruent - Strong","Hard"
"S002","VerticalHorizontal",-0.3,31.5,"VerticalHorizontal_31.5000_-0.3000","A",12,386235,0.209,"ArrowLeft","false",1,"Incongruent",0.3,"Incongruent - Strong","Easy"
"S002","VerticalHorizontal",-0.12339,-40.5,"VerticalHorizontal_-40.500_-0.12339","A",13,387166,0.98,"ArrowRight","true",0,"Congruent",0.12339,"Congruent - Strong","Hard"
"S002","VerticalHorizontal",0.0581,-22.5,"VerticalHorizontal_-22.500_0.05810","A",14,389218,0.358,"ArrowRight","false",1,"Congruent",0.0581,"Congruent - Mild","Hard"
"S002","VerticalHorizontal",-0.20298,4.5,"VerticalHorizontal_4.50000_-0.20298","A",15,390201,1.136,"ArrowRight","true",0,"Incongruent",0.20298,"Incongruent - Mild","Easy"
"S002","VerticalHorizontal",0.12339,40.5,"VerticalHorizontal_40.5000_0.12339","A",16,392067,0.404,"ArrowRight","false",1,"Incongruent",0.12339,"Incongruent - Strong","Hard"
"S002","VerticalHorizontal",0.20298,-13.5,"VerticalHorizontal_-13.500_0.20298","A",17,393384,0.606,"ArrowRight","false",1,"Congruent",0.20298,"Congruent - Mild","Easy"
"S002","VerticalHorizontal",-0.12339,4.5,"VerticalHorizontal_4.50000_-0.12339","A",18,395055,0.281,"ArrowLeft","false",1,"Incongruent",0.12339,"Incongruent - Mild","Hard"
"S002","VerticalHorizontal",0.20298,40.5,"VerticalHorizontal_40.5000_0.20298","A",19,396269,0.357,"ArrowLeft","true",0,"Incongruent",0.20298,"Incongruent - Strong","Easy"
"S002","VerticalHorizontal",0.0581,40.5,"VerticalHorizontal_40.5000_0.05810","A",20,397402,1.026,"ArrowRight","false",1,"Incongruent",0.0581,"Incongruent - Strong","Hard"
"S002","VerticalHorizontal",0.3,4.5,"VerticalHorizontal_4.50000_0.30000","A",21,399441,0.536,"ArrowLeft","true",0,"Incongruent",0.3,"Incongruent - Mild","Easy"
"S002","VerticalHorizontal",0.12339,-40.5,"VerticalHorizontal_-40.500_0.12339","A",22,400768,0.783,"ArrowLeft","true",0,"Congruent",0.12339,"Congruent - Strong","Hard"
"S002","VerticalHorizontal",-0.20298,-31.5,"VerticalHorizontal_-31.500_-0.20298","A",23,402217,0.587,"ArrowLeft","false",1,"Congruent",0.20298,"Congruent - Strong","Easy"
"S002","VerticalHorizontal",-0.12339,-22.5,"VerticalHorizontal_-22.500_-0.12339","A",24,403891,0.288,"ArrowRight","true",0,"Congruent",0.12339,"Congruent - Mild","Hard"
"S002","VerticalHorizontal",-0.20298,-4.5,"VerticalHorizontal_-4.5000_-0.20298","A",25,404814,0.594,"ArrowRight","true",0,"Congruent",0.20298,"Congruent - Mild","Easy"
"S002","VerticalHorizontal",0.0581,-40.5,"VerticalHorizontal_-40.500_0.05810","A",26,406148,0.928,"ArrowLeft","true",0,"Congruent",0.0581,"Congruent - Strong","Hard"
"S002","VerticalHorizontal",0.0581,22.5,"VerticalHorizontal_22.5000_0.05810","A",27,407922,0.764,"ArrowLeft","true",0,"Incongruent",0.0581,"Incongruent - Mild","Hard"
"S002","VerticalHorizontal",0.0581,4.5,"VerticalHorizontal_4.50000_0.05810","A",28,409435,0.347,"ArrowRight","false",1,"Incongruent",0.0581,"Incongruent - Mild","Hard"
"S002","VerticalHorizontal",0.20298,-4.5,"VerticalHorizontal_-4.5000_0.20298","A",29,410713,0.331,"ArrowLeft","true",0,"Congruent",0.20298,"Congruent - Mild","Easy"
"S002","VerticalHorizontal",0.20298,-40.5,"VerticalHorizontal_-40.500_0.20298","A",30,411856,0.429,"ArrowLeft","true",0,"Congruent",0.20298,"Congruent - Strong","Easy"
"S002","VerticalHorizontal",-0.12339,-4.5,"VerticalHorizontal_-4.5000_-0.12339","A",31,413266,0.274,"ArrowLeft","false",1,"Congruent",0.12339,"Congruent - Mild","Hard"
"S002","VerticalHorizontal",0.3,-31.5,"VerticalHorizontal_-31.500_0.30000","A",32,414335,0.321,"ArrowRight","false",1,"Congruent",0.3,"Congruent - Strong","Easy"
"S002","VerticalHorizontal",0.0581,-13.5,"VerticalHorizontal_-13.500_0.05810","A",33,415493,0.467,"ArrowRight","false",1,"Congruent",0.0581,"Congruent - Mild","Hard"
"S002","VerticalHorizontal",0.3,40.5,"VerticalHorizontal_40.5000_0.30000","A",34,416760,0.529,"ArrowLeft","true",0,"Incongruent",0.3,"Incongruent - Strong","Easy"
"S002","VerticalHorizontal",-0.3,-40.5,"VerticalHorizontal_-40.500_-0.3000","A",35,417919,0.452,"ArrowLeft","false",1,"Congruent",0.3,"Congruent - Strong","Easy"
"S002","VerticalHorizontal",-0.20298,22.5,"VerticalHorizontal_22.5000_-0.20298","A",36,419118,0.611,"ArrowLeft","false",1,"Incongruent",0.20298,"Incongruent - Mild","Easy"
"S002","VerticalHorizontal",0.3,-4.5,"VerticalHorizontal_-4.5000_0.30000","A",37,420401,0.731,"ArrowRight","false",1,"Congruent",0.3,"Congruent - Mild","Easy"
"S002","VerticalHorizontal",-0.3,13.5,"VerticalHorizontal_13.5000_-0.3000","A",38,422142,0.54,"ArrowRight","true",0,"Incongruent",0.3,"Incongruent - Mild","Easy"
"S002","VerticalHorizontal",0.12339,-4.5,"VerticalHorizontal_-4.5000_0.12339","A",39,423735,0.326,"ArrowRight","false",1,"Congruent",0.12339,"Congruent - Mild","Hard"
"S002","VerticalHorizontal",0.20298,13.5,"VerticalHorizontal_13.5000_0.20298","A",40,424758,0.425,"ArrowRight","false",1,"Incongruent",0.20298,"Incongruent - Mild","Easy"
"S002","VerticalHorizontal",-0.12339,40.5,"VerticalHorizontal_40.5000_-0.12339","A",41,425967,0.432,"ArrowRight","true",0,"Incongruent",0.12339,"Incongruent - Strong","Hard"
"S002","VerticalHorizontal",0.20298,-31.5,"VerticalHorizontal_-31.500_0.20298","A",42,427164,1.607,"ArrowRight","false",1,"Congruent",0.20298,"Congruent - Strong","Easy"
"S002","VerticalHorizontal",0.20298,-22.5,"VerticalHorizontal_-22.500_0.20298","A",43,429854,1.05,"ArrowLeft","true",0,"Congruent",0.20298,"Congruent - Mild","Easy"
"S002","VerticalHorizontal",0.3,13.5,"VerticalHorizontal_13.5000_0.30000","A",44,431536,1.508,"ArrowLeft","true",0,"Incongruent",0.3,"Incongruent - Mild","Easy"
"S002","VerticalHorizontal",0.3,31.5,"VerticalHorizontal_31.5000_0.30000","A",45,433655,1.01,"ArrowRight","false",1,"Incongruent",0.3,"Incongruent - Strong","Easy"
"S002","VerticalHorizontal",0.12339,22.5,"VerticalHorizontal_22.5000_0.12339","A",46,435411,0.501,"ArrowRight","false",1,"Incongruent",0.12339,"Incongruent - Mild","Hard"
"S002","VerticalHorizontal",-0.3,-22.5,"VerticalHorizontal_-22.500_-0.3000","A",47,436625,0.639,"ArrowRight","true",0,"Congruent",0.3,"Congruent - Mild","Easy"
"S002","VerticalHorizontal",-0.0581,-13.5,"VerticalHorizontal_-13.500_-0.0581","A",48,438102,0.41,"ArrowRight","true",0,"Congruent",0.0581,"Congruent - Mild","Hard"
"S002","VerticalHorizontal",0.3,-22.5,"VerticalHorizontal_-22.500_0.30000","A",49,439186,0.592,"ArrowRight","false",1,"Congruent",0.3,"Congruent - Mild","Easy"
"S002","VerticalHorizontal",0.12339,4.5,"VerticalHorizontal_4.50000_0.12339","A",50,440546,1.722,"ArrowRight","false",1,"Incongruent",0.12339,"Incongruent - Mild","Hard"
"S002","VerticalHorizontal",-0.20298,13.5,"VerticalHorizontal_13.5000_-0.20298","A",51,442925,1.446,"ArrowLeft","false",1,"Incongruent",0.20298,"Incongruent - Mild","Easy"
"S002","VerticalHorizontal",0.0581,-4.5,"VerticalHorizontal_-4.5000_0.05810","A",52,445380,1.134,"ArrowRight","false",1,"Congruent",0.0581,"Congruent - Mild","Hard"
"S002","VerticalHorizontal",0.0581,31.5,"VerticalHorizontal_31.5000_0.05810","A",53,447617,0.88,"ArrowRight","false",1,"Incongruent",0.0581,"Incongruent - Strong","Hard"
"S002","VerticalHorizontal",0.20298,22.5,"VerticalHorizontal_22.5000_0.20298","A",54,449266,0.839,"ArrowRight","false",1,"Incongruent",0.20298,"Incongruent - Mild","Easy"
"S002","VerticalHorizontal",-0.3,4.5,"VerticalHorizontal_4.50000_-0.3000","A",55,450927,0.474,"ArrowLeft","false",1,"Incongruent",0.3,"Incongruent - Mild","Easy"
"S002","VerticalHorizontal",-0.12339,22.5,"VerticalHorizontal_22.5000_-0.12339","A",56,452350,0.295,"ArrowRight","true",0,"Incongruent",0.12339,"Incongruent - Mild","Hard"
"S002","VerticalHorizontal",-0.20298,-40.5,"VerticalHorizontal_-40.500_-0.20298","A",57,453620,0.564,"ArrowRight","true",0,"Congruent",0.20298,"Congruent - Strong","Easy"
"S002","VerticalHorizontal",-0.3,-31.5,"VerticalHorizontal_-31.500_-0.3000","A",58,454833,0.658,"ArrowRight","true",0,"Congruent",0.3,"Congruent - Strong","Easy"
"S002","VerticalHorizontal",-0.3,40.5,"VerticalHorizontal_40.5000_-0.3000","A",59,456563,0.376,"ArrowLeft","false",1,"Incongruent",0.3,"Incongruent - Strong","Easy"
"S002","VerticalHorizontal",0.3,22.5,"VerticalHorizontal_22.5000_0.30000","A",60,457592,0.734,"ArrowLeft","true",0,"Incongruent",0.3,"Incongruent - Mild","Easy"
"S002","VerticalHorizontal",-0.3,-13.5,"VerticalHorizontal_-13.500_-0.3000","A",61,459217,0.389,"ArrowRight","true",0,"Congruent",0.3,"Congruent - Mild","Easy"
"S002","VerticalHorizontal",0.12339,13.5,"VerticalHorizontal_13.5000_0.12339","A",62,460482,1.218,"ArrowRight","false",1,"Incongruent",0.12339,"Incongruent - Mild","Hard"
"S002","VerticalHorizontal",-0.12339,-31.5,"VerticalHorizontal_-31.500_-0.12339","A",63,462649,1.462,"ArrowRight","true",0,"Congruent",0.12339,"Congruent - Strong","Hard"
"S002","VerticalHorizontal",-0.0581,-40.5,"VerticalHorizontal_-40.500_-0.0581","A",64,464738,1.546,"ArrowRight","true",0,"Congruent",0.0581,"Congruent - Strong","Hard"
"S002","VerticalHorizontal",0.3,-40.5,"VerticalHorizontal_-40.500_0.30000","A",65,467112,1.518,"ArrowLeft","true",0,"Congruent",0.3,"Congruent - Strong","Easy"
"S002","VerticalHorizontal",0.12339,-31.5,"VerticalHorizontal_-31.500_0.12339","A",66,469561,1.209,"ArrowRight","false",1,"Congruent",0.12339,"Congruent - Strong","Hard"
"S002","VerticalHorizontal",0.0581,-31.5,"VerticalHorizontal_-31.500_0.05810","A",67,471813,0.528,"ArrowLeft","true",0,"Congruent",0.0581,"Congruent - Strong","Hard"
"S002","VerticalHorizontal",-0.20298,-13.5,"VerticalHorizontal_-13.500_-0.20298","A",68,473393,0.517,"ArrowRight","true",0,"Congruent",0.20298,"Congruent - Mild","Easy"
"S002","VerticalHorizontal",-0.12339,31.5,"VerticalHorizontal_31.5000_-0.12339","A",69,474865,0.535,"ArrowRight","true",0,"Incongruent",0.12339,"Incongruent - Strong","Hard"
"S002","VerticalHorizontal",-0.20298,-22.5,"VerticalHorizontal_-22.500_-0.20298","A",70,476111,0.683,"ArrowLeft","false",1,"Congruent",0.20298,"Congruent - Mild","Easy"
"S002","VerticalHorizontal",-0.3,22.5,"VerticalHorizontal_22.5000_-0.3000","A",71,477710,0.5,"ArrowRight","true",0,"Incongruent",0.3,"Incongruent - Mild","Easy"
"S002","VerticalHorizontal",-0.20298,40.5,"VerticalHorizontal_40.5000_-0.20298","A",72,478908,1.022,"ArrowRight","true",0,"Incongruent",0.20298,"Incongruent - Strong","Easy"
"S002","VerticalHorizontal",0.12339,-22.5,"VerticalHorizontal_-22.500_0.12339","A",73,481003,1.143,"ArrowLeft","true",0,"Congruent",0.12339,"Congruent - Mild","Hard"
"S002","VerticalHorizontal",-0.0581,40.5,"VerticalHorizontal_40.5000_-0.0581","A",74,482937,1.468,"ArrowLeft","false",1,"Incongruent",0.0581,"Incongruent - Strong","Hard"
"S002","VerticalHorizontal",-0.0581,-22.5,"VerticalHorizontal_-22.500_-0.0581","A",75,485223,0.492,"ArrowLeft","false",1,"Congruent",0.0581,"Congruent - Mild","Hard"
"S002","VerticalHorizontal",-0.3,-4.5,"VerticalHorizontal_-4.5000_-0.3000","A",76,486652,0.415,"ArrowRight","true",0,"Congruent",0.3,"Congruent - Mild","Easy"
"S002","VerticalHorizontal",-0.0581,-31.5,"VerticalHorizontal_-31.500_-0.0581","A",77,487801,0.887,"ArrowLeft","false",1,"Congruent",0.0581,"Congruent - Strong","Hard"
"S002","VerticalHorizontal",-0.12339,-13.5,"VerticalHorizontal_-13.500_-0.12339","A",78,489574,0.53,"ArrowRight","true",0,"Congruent",0.12339,"Congruent - Mild","Hard"
"S002","VerticalHorizontal",-0.12339,13.5,"VerticalHorizontal_13.5000_-0.12339","A",79,491104,0.308,"ArrowRight","true",0,"Incongruent",0.12339,"Incongruent - Mild","Hard"
"S002","VerticalHorizontal",-0.0581,31.5,"VerticalHorizontal_31.5000_-0.0581","A",80,492410,0.685,"ArrowRight","true",0,"Incongruent",0.0581,"Incongruent - Strong","Hard"
"S002","MullerLyer",-0.045,-12,"MullerLyer_-12.000_-0.0450","B",1,574660,0.713,"ArrowDown","true",0,"Congruent",0.045,"Congruent - Mild","Hard"
"S002","MullerLyer",0.045,30,"MullerLyer_30.0000_0.04500","B",2,576314,0.401,"ArrowUp","true",0,"Incongruent",0.045,"Incongruent - Strong","Hard"
"S002","MullerLyer",0.045,24,"MullerLyer_24.0000_0.04500","B",3,577593,0.73,"ArrowDown","false",1,"Incongruent",0.045,"Incongruent - Strong","Hard"
"S002","MullerLyer",-0.37364,-24,"MullerLyer_-24.000_-0.37364","B",4,579292,0.36,"ArrowDown","true",0,"Congruent",0.37364,"Congruent - Strong","Easy"
"S002","MullerLyer",-0.045,-30,"MullerLyer_-30.000_-0.0450","B",5,580468,0.4,"ArrowDown","true",0,"Congruent",0.045,"Congruent - Strong","Hard"
"S002","MullerLyer",0.1337,12,"MullerLyer_12.0000_0.13370","B",6,581662,0.363,"ArrowDown","false",1,"Incongruent",0.1337,"Incongruent - Mild","Hard"
"S002","MullerLyer",-0.37364,-18,"MullerLyer_-18.000_-0.37364","B",7,582971,0.572,"ArrowDown","true",0,"Congruent",0.37364,"Congruent - Strong","Easy"
"S002","MullerLyer",-0.37364,30,"MullerLyer_30.0000_-0.37364","B",8,584474,1.278,"ArrowDown","true",0,"Incongruent",0.37364,"Incongruent - Strong","Easy"
"S002","MullerLyer",0.1337,-24,"MullerLyer_-24.000_0.13370","B",9,586677,2.034,"ArrowDown","false",1,"Congruent",0.1337,"Congruent - Strong","Hard"
"S002","MullerLyer",-0.24183,-6,"MullerLyer_-6.0000_-0.24183","B",10,589321,2.32,"ArrowUp","false",1,"Congruent",0.24183,"Congruent - Mild","Easy"
"S002","MullerLyer",0.1337,6,"MullerLyer_6.00000_0.13370","B",11,592460,1.417,"ArrowUp","true",0,"Incongruent",0.1337,"Incongruent - Mild","Hard"
"S002","MullerLyer",0.045,-30,"MullerLyer_-30.000_0.04500","B",12,594744,0.444,"ArrowDown","false",1,"Congruent",0.045,"Congruent - Strong","Hard"
"S002","MullerLyer",-0.24183,6,"MullerLyer_6.00000_-0.24183","B",13,595805,0.791,"ArrowDown","true",0,"Incongruent",0.24183,"Incongruent - Mild","Easy"
"S002","MullerLyer",0.24183,-6,"MullerLyer_-6.0000_0.24183","B",14,597243,1.822,"ArrowDown","false",1,"Congruent",0.24183,"Congruent - Mild","Easy"
"S002","MullerLyer",-0.37364,18,"MullerLyer_18.0000_-0.37364","B",15,599693,1.992,"ArrowDown","true",0,"Incongruent",0.37364,"Incongruent - Strong","Easy"
"S002","MullerLyer",0.37364,-12,"MullerLyer_-12.000_0.37364","B",16,602473,0.72,"ArrowUp","true",0,"Congruent",0.37364,"Congruent - Mild","Easy"
"S002","MullerLyer",-0.1337,-18,"MullerLyer_-18.000_-0.1337","B",17,604014,1.254,"ArrowUp","false",1,"Congruent",0.1337,"Congruent - Strong","Hard"
"S002","MullerLyer",0.37364,18,"MullerLyer_18.0000_0.37364","B",18,606300,0.262,"ArrowDown","false",1,"Incongruent",0.37364,"Incongruent - Strong","Easy"
"S002","MullerLyer",0.045,18,"MullerLyer_18.0000_0.04500","B",19,607629,0.325,"ArrowDown","false",1,"Incongruent",0.045,"Incongruent - Strong","Hard"
"S002","MullerLyer",-0.1337,24,"MullerLyer_24.0000_-0.1337","B",20,608673,0.633,"ArrowDown","true",0,"Incongruent",0.1337,"Incongruent - Strong","Hard"
"S002","MullerLyer",-0.24183,-18,"MullerLyer_-18.000_-0.24183","B",21,609989,0.992,"ArrowDown","true",0,"Congruent",0.24183,"Congruent - Strong","Easy"
"S002","MullerLyer",0.37364,24,"MullerLyer_24.0000_0.37364","B",22,611714,0.515,"ArrowUp","true",0,"Incongruent",0.37364,"Incongruent - Strong","Easy"
"S002","MullerLyer",-0.37364,-30,"MullerLyer_-30.000_-0.37364","B",23,613135,0.514,"ArrowUp","false",1,"Congruent",0.37364,"Congruent - Strong","Easy"
"S002","MullerLyer",-0.37364,6,"MullerLyer_6.00000_-0.37364","B",24,614625,0.591,"ArrowUp","false",1,"Incongruent",0.37364,"Incongruent - Mild","Easy"
"S002","MullerLyer",0.1337,18,"MullerLyer_18.0000_0.13370","B",25,615911,0.774,"ArrowUp","true",0,"Incongruent",0.1337,"Incongruent - Strong","Hard"
"S002","MullerLyer",0.24183,-12,"MullerLyer_-12.000_0.24183","B",26,617319,0.847,"ArrowDown","false",1,"Congruent",0.24183,"Congruent - Mild","Easy"
"S002","MullerLyer",-0.045,6,"MullerLyer_6.00000_-0.0450","B",27,619042,0.532,"ArrowDown","true",0,"Incongruent",0.045,"Incongruent - Mild","Hard"
"S002","MullerLyer",0.045,-12,"MullerLyer_-12.000_0.04500","B",28,620483,0.585,"ArrowDown","false",1,"Congruent",0.045,"Congruent - Mild","Hard"
"S002","MullerLyer",-0.37364,12,"MullerLyer_12.0000_-0.37364","B",29,621909,1.064,"ArrowDown","true",0,"Incongruent",0.37364,"Incongruent - Mild","Easy"
"S002","MullerLyer",0.37364,12,"MullerLyer_12.0000_0.37364","B",30,623995,0.317,"ArrowDown","false",1,"Incongruent",0.37364,"Incongruent - Mild","Easy"
"S002","MullerLyer",-0.045,-24,"MullerLyer_-24.000_-0.0450","B",31,625051,0.69,"ArrowDown","true",0,"Congruent",0.045,"Congruent - Strong","Hard"
"S002","MullerLyer",0.1337,-30,"MullerLyer_-30.000_0.13370","B",32,626544,0.787,"ArrowDown","false",1,"Congruent",0.1337,"Congruent - Strong","Hard"
"S002","MullerLyer",-0.24183,18,"MullerLyer_18.0000_-0.24183","B",33,628214,0.603,"ArrowUp","false",1,"Incongruent",0.24183,"Incongruent - Strong","Easy"
"S002","MullerLyer",-0.045,18,"MullerLyer_18.0000_-0.0450","B",34,629656,0.712,"ArrowUp","false",1,"Incongruent",0.045,"Incongruent - Strong","Hard"
"S002","MullerLyer",0.045,-6,"MullerLyer_-6.0000_0.04500","B",35,631042,0.63,"ArrowDown","false",1,"Congruent",0.045,"Congruent - Mild","Hard"
"S002","MullerLyer",0.045,12,"MullerLyer_12.0000_0.04500","B",36,632496,0.901,"ArrowUp","true",0,"Incongruent",0.045,"Incongruent - Mild","Hard"
"S002","MullerLyer",0.24183,24,"MullerLyer_24.0000_0.24183","B",37,634293,0.363,"ArrowDown","false",1,"Incongruent",0.24183,"Incongruent - Strong","Easy"
"S002","MullerLyer",-0.24183,-30,"MullerLyer_-30.000_-0.24183","B",38,635369,0.746,"ArrowDown","true",0,"Congruent",0.24183,"Congruent - Strong","Easy"
"S002","MullerLyer",-0.045,12,"MullerLyer_12.0000_-0.0450","B",39,636834,0.767,"ArrowDown","true",0,"Incongruent",0.045,"Incongruent - Mild","Hard"
"S002","MullerLyer",0.045,6,"MullerLyer_6.00000_0.04500","B",40,638650,0.475,"ArrowDown","false",1,"Incongruent",0.045,"Incongruent - Mild","Hard"
"S002","MullerLyer",0.24183,18,"MullerLyer_18.0000_0.24183","B",41,639978,0.524,"ArrowDown","false",1,"Incongruent",0.24183,"Incongruent - Strong","Easy"
"S002","MullerLyer",0.1337,30,"MullerLyer_30.0000_0.13370","B",42,641561,0.492,"ArrowDown","false",1,"Incongruent",0.1337,"Incongruent - Strong","Hard"
"S002","MullerLyer",0.24183,-24,"MullerLyer_-24.000_0.24183","B",43,642764,0.401,"ArrowUp","true",0,"Congruent",0.24183,"Congruent - Strong","Easy"
"S002","MullerLyer",-0.045,24,"MullerLyer_24.0000_-0.0450","B",44,644121,0.394,"ArrowDown","true",0,"Incongruent",0.045,"Incongruent - Strong","Hard"
"S002","MullerLyer",0.1337,-6,"MullerLyer_-6.0000_0.13370","B",45,645349,0.536,"ArrowDown","false",1,"Congruent",0.1337,"Congruent - Mild","Hard"
"S002","MullerLyer",0.1337,24,"MullerLyer_24.0000_0.13370","B",46,646960,0.264,"ArrowDown","false",1,"Incongruent",0.1337,"Incongruent - Strong","Hard"
"S002","MullerLyer",-0.1337,18,"MullerLyer_18.0000_-0.1337","B",47,647986,0.742,"ArrowDown","true",0,"Incongruent",0.1337,"Incongruent - Strong","Hard"
"S002","MullerLyer",-0.1337,-12,"MullerLyer_-12.000_-0.1337","B",48,649419,1.186,"ArrowDown","true",0,"Congruent",0.1337,"Congruent - Mild","Hard"
"S002","MullerLyer",-0.24183,-24,"MullerLyer_-24.000_-0.24183","B",49,651476,0.38,"ArrowDown","true",0,"Congruent",0.24183,"Congruent - Strong","Easy"
"S002","MullerLyer",0.37364,-24,"MullerLyer_-24.000_0.37364","B",50,652540,0.803,"ArrowDown","false",1,"Congruent",0.37364,"Congruent - Strong","Easy"
"S002","MullerLyer",-0.1337,-6,"MullerLyer_-6.0000_-0.1337","B",51,654111,0.813,"ArrowUp","false",1,"Congruent",0.1337,"Congruent - Mild","Hard"
"S002","MullerLyer",0.24183,12,"MullerLyer_12.0000_0.24183","B",52,656018,0.329,"ArrowUp","true",0,"Incongruent",0.24183,"Incongruent - Mild","Easy"
"S002","MullerLyer",-0.37364,-12,"MullerLyer_-12.000_-0.37364","B",53,657162,1.05,"ArrowDown","true",0,"Congruent",0.37364,"Congruent - Mild","Easy"
"S002","MullerLyer",0.1337,-18,"MullerLyer_-18.000_0.13370","B",54,658997,0.615,"ArrowDown","false",1,"Congruent",0.1337,"Congruent - Strong","Hard"
"S002","MullerLyer",-0.37364,24,"MullerLyer_24.0000_-0.37364","B",55,660699,0.392,"ArrowDown","true",0,"Incongruent",0.37364,"Incongruent - Strong","Easy"
"S002","MullerLyer",-0.045,30,"MullerLyer_30.0000_-0.0450","B",56,662074,0.375,"ArrowDown","true",0,"Incongruent",0.045,"Incongruent - Strong","Hard"
"S002","MullerLyer",0.24183,6,"MullerLyer_6.00000_0.24183","B",57,663108,0.423,"ArrowDown","false",1,"Incongruent",0.24183,"Incongruent - Mild","Easy"
"S002","MullerLyer",-0.1337,-24,"MullerLyer_-24.000_-0.1337","B",58,664443,0.487,"ArrowDown","true",0,"Congruent",0.1337,"Congruent - Strong","Hard"
"S002","MullerLyer",0.045,-24,"MullerLyer_-24.000_0.04500","B",59,665980,0.285,"ArrowDown","false",1,"Congruent",0.045,"Congruent - Strong","Hard"
"S002","MullerLyer",0.37364,-6,"MullerLyer_-6.0000_0.37364","B",60,666928,0.442,"ArrowDown","false",1,"Congruent",0.37364,"Congruent - Mild","Easy"
"S002","MullerLyer",0.045,-18,"MullerLyer_-18.000_0.04500","B",61,668172,0.205,"ArrowUp","true",0,"Congruent",0.045,"Congruent - Strong","Hard"
"S002","MullerLyer",-0.24183,-12,"MullerLyer_-12.000_-0.24183","B",62,669347,0.271,"ArrowDown","true",0,"Congruent",0.24183,"Congruent - Mild","Easy"
"S002","MullerLyer",-0.1337,6,"MullerLyer_6.00000_-0.1337","B",63,670501,1.01,"ArrowDown","true",0,"Incongruent",0.1337,"Incongruent - Mild","Hard"
"S002","MullerLyer",-0.37364,-6,"MullerLyer_-6.0000_-0.37364","B",64,672530,0.325,"ArrowDown","true",0,"Congruent",0.37364,"Congruent - Mild","Easy"
"S002","MullerLyer",0.24183,-18,"MullerLyer_-18.000_0.24183","B",65,673836,1.45,"ArrowUp","true",0,"Congruent",0.24183,"Congruent - Strong","Easy"
"S002","MullerLyer",-0.1337,12,"MullerLyer_12.0000_-0.1337","B",66,676384,0.835,"ArrowUp","false",1,"Incongruent",0.1337,"Incongruent - Mild","Hard"
"S002","MullerLyer",0.24183,-30,"MullerLyer_-30.000_0.24183","B",67,678090,1.119,"ArrowDown","false",1,"Congruent",0.24183,"Congruent - Strong","Easy"
"S002","MullerLyer",0.37364,6,"MullerLyer_6.00000_0.37364","B",68,679927,0.791,"ArrowDown","false",1,"Incongruent",0.37364,"Incongruent - Mild","Easy"
"S002","MullerLyer",-0.045,-6,"MullerLyer_-6.0000_-0.0450","B",69,681361,0.789,"ArrowUp","false",1,"Congruent",0.045,"Congruent - Mild","Hard"
"S002","MullerLyer",0.1337,-12,"MullerLyer_-12.000_0.13370","B",70,682884,0.792,"ArrowDown","false",1,"Congruent",0.1337,"Congruent - Mild","Hard"
"S002","MullerLyer",-0.24183,30,"MullerLyer_30.0000_-0.24183","B",71,684679,1.778,"ArrowUp","false",1,"Incongruent",0.24183,"Incongruent - Strong","Easy"
"S002","MullerLyer",0.37364,-30,"MullerLyer_-30.000_0.37364","B",72,687074,0.868,"ArrowDown","false",1,"Congruent",0.37364,"Congruent - Strong","Easy"
"S002","MullerLyer",0.37364,-18,"MullerLyer_-18.000_0.37364","B",73,689016,0.092,"ArrowDown","false",1,"Congruent",0.37364,"Congruent - Strong","Easy"
"S002","MullerLyer",0.24183,30,"MullerLyer_30.0000_0.24183","B",74,690033,0.221,"ArrowUp","true",0,"Incongruent",0.24183,"Incongruent - Strong","Easy"
"S002","MullerLyer",0.37364,30,"MullerLyer_30.0000_0.37364","B",75,691319,0.839,"ArrowUp","true",0,"Incongruent",0.37364,"Incongruent - Strong","Easy"
"S002","MullerLyer",-0.24183,24,"MullerLyer_24.0000_-0.24183","B",76,692764,1.44,"ArrowUp","false",1,"Incongruent",0.24183,"Incongruent - Strong","Easy"
"S002","MullerLyer",-0.045,-18,"MullerLyer_-18.000_-0.0450","B",77,695307,0.231,"ArrowDown","true",0,"Congruent",0.045,"Congruent - Strong","Hard"
"S002","MullerLyer",-0.1337,30,"MullerLyer_30.0000_-0.1337","B",78,696537,0.601,"ArrowDown","true",0,"Incongruent",0.1337,"Incongruent - Strong","Hard"
"S002","MullerLyer",-0.1337,-30,"MullerLyer_-30.000_-0.1337","B",79,697830,0.928,"ArrowDown","true",0,"Congruent",0.1337,"Congruent - Strong","Hard"
"S002","MullerLyer",-0.24183,12,"MullerLyer_12.0000_-0.24183","B",80,699595,0.796,"ArrowDown","true",0,"Incongruent",0.24183,"Incongruent - Mild","Easy"
"S002","Ebbinghaus",-0.2687,0.3,"Ebbinghaus_0.30000_-0.2687","B",1,711821,0.586,"ArrowRight","true",0,"Incongruent",0.2687,"Incongruent - Mild","Easy"
"S002","Ebbinghaus",0.2687,-1.5,"Ebbinghaus_-1.5000_0.26870","B",2,713375,1.044,"ArrowRight","false",1,"Congruent",0.2687,"Congruent - Strong","Easy"
"S002","Ebbinghaus",-0.05,1.5,"Ebbinghaus_1.50000_-0.0500","B",3,715331,1.595,"ArrowRight","true",0,"Incongruent",0.05,"Incongruent - Strong","Hard"
"S002","Ebbinghaus",0.41515,-0.6,"Ebbinghaus_-0.6000_0.41515","B",4,717624,0.989,"ArrowLeft","true",0,"Congruent",0.41515,"Congruent - Mild","Easy"
"S002","Ebbinghaus",-0.2687,0.9,"Ebbinghaus_0.90000_-0.2687","B",5,719647,0.272,"ArrowLeft","false",1,"Incongruent",0.2687,"Incongruent - Strong","Easy"
"S002","Ebbinghaus",-0.41515,-1.5,"Ebbinghaus_-1.5000_-0.41515","B",6,720836,0.652,"ArrowLeft","false",1,"Congruent",0.41515,"Congruent - Strong","Easy"
"S002","Ebbinghaus",0.2687,1.2,"Ebbinghaus_1.20000_0.26870","B",7,722325,0.754,"ArrowLeft","true",0,"Incongruent",0.2687,"Incongruent - Strong","Easy"
"S002","Ebbinghaus",-0.14856,1.5,"Ebbinghaus_1.50000_-0.14856","B",8,723943,0.793,"ArrowLeft","false",1,"Incongruent",0.14856,"Incongruent - Strong","Hard"
"S002","Ebbinghaus",0.05,-1.5,"Ebbinghaus_-1.5000_0.05000","B",9,725604,0.346,"ArrowRight","false",1,"Congruent",0.05,"Congruent - Strong","Hard"
"S002","Ebbinghaus",0.41515,0.6,"Ebbinghaus_0.60000_0.41515","B",10,726869,0.402,"ArrowRight","false",1,"Incongruent",0.41515,"Incongruent - Mild","Easy"
"S002","Ebbinghaus",-0.05,0.6,"Ebbinghaus_0.60000_-0.0500","B",11,728191,0.706,"ArrowRight","true",0,"Incongruent",0.05,"Incongruent - Mild","Hard"
"S002","Ebbinghaus",0.2687,-0.9,"Ebbinghaus_-0.9000_0.26870","B",12,729680,0.726,"ArrowRight","false",1,"Congruent",0.2687,"Congruent - Strong","Easy"
"S002","Ebbinghaus",0.2687,0.9,"Ebbinghaus_0.90000_0.26870","B",13,731453,1.134,"ArrowLeft","true",0,"Incongruent",0.2687,"Incongruent - Strong","Easy"
"S002","Ebbinghaus",0.05,-0.3,"Ebbinghaus_-0.3000_0.05000","B",14,733316,0.478,"ArrowLeft","true",0,"Congruent",0.05,"Congruent - Mild","Hard"
"S002","Ebbinghaus",-0.2687,1.5,"Ebbinghaus_1.50000_-0.2687","B",15,734614,0.69,"ArrowLeft","false",1,"Incongruent",0.2687,"Incongruent - Strong","Easy"
"S002","Ebbinghaus",-0.05,0.3,"Ebbinghaus_0.30000_-0.0500","B",16,736047,2.166,"ArrowLeft","false",1,"Incongruent",0.05,"Incongruent - Mild","Hard"
"S002","Ebbinghaus",0.14856,1.2,"Ebbinghaus_1.20000_0.14856","B",17,739272,1.704,"ArrowLeft","true",0,"Incongruent",0.14856,"Incongruent - Strong","Hard"
"S002","Ebbinghaus",0.41515,0.3,"Ebbinghaus_0.30000_0.41515","B",18,741693,0.755,"ArrowRight","false",1,"Incongruent",0.41515,"Incongruent - Mild","Easy"
"S002","Ebbinghaus",-0.14856,0.6,"Ebbinghaus_0.60000_-0.14856","B",19,743406,1.018,"ArrowRight","true",0,"Incongruent",0.14856,"Incongruent - Mild","Hard"
"S002","Ebbinghaus",0.05,-1.2,"Ebbinghaus_-1.2000_0.05000","B",20,745361,0.533,"ArrowRight","false",1,"Congruent",0.05,"Congruent - Strong","Hard"
"S002","Ebbinghaus",0.05,1.5,"Ebbinghaus_1.50000_0.05000","B",21,746899,0.61,"ArrowRight","false",1,"Incongruent",0.05,"Incongruent - Strong","Hard"
"S002","Ebbinghaus",0.14856,-0.3,"Ebbinghaus_-0.3000_0.14856","B",22,748592,0.491,"ArrowRight","false",1,"Congruent",0.14856,"Congruent - Mild","Hard"
"S002","Ebbinghaus",0.14856,0.6,"Ebbinghaus_0.60000_0.14856","B",23,749981,1.278,"ArrowRight","false",1,"Incongruent",0.14856,"Incongruent - Mild","Hard"
"S002","Ebbinghaus",-0.05,-1.5,"Ebbinghaus_-1.5000_-0.0500","B",24,752204,1.082,"ArrowRight","true",0,"Congruent",0.05,"Congruent - Strong","Hard"
"S002","Ebbinghaus",-0.2687,-1.2,"Ebbinghaus_-1.2000_-0.2687","B",25,754319,0.611,"ArrowRight","true",0,"Congruent",0.2687,"Congruent - Strong","Easy"
"S002","Ebbinghaus",0.05,-0.9,"Ebbinghaus_-0.9000_0.05000","B",26,755913,2.913,"ArrowRight","false",1,"Congruent",0.05,"Congruent - Strong","Hard"
"S002","Ebbinghaus",-0.41515,1.5,"Ebbinghaus_1.50000_-0.41515","B",27,759857,1.597,"ArrowRight","true",0,"Incongruent",0.41515,"Incongruent - Strong","Easy"
"S002","Ebbinghaus",-0.14856,-0.9,"Ebbinghaus_-0.9000_-0.14856","B",28,762346,2.172,"ArrowRight","true",0,"Congruent",0.14856,"Congruent - Strong","Hard"
"S002","Ebbinghaus",-0.2687,-1.5,"Ebbinghaus_-1.5000_-0.2687","B",29,765284,0.939,"ArrowRight","true",0,"Congruent",0.2687,"Congruent - Strong","Easy"
"S002","Ebbinghaus",-0.2687,1.2,"Ebbinghaus_1.20000_-0.2687","B",30,766912,1.032,"ArrowLeft","false",1,"Incongruent",0.2687,"Incongruent - Strong","Easy"
"S002","Ebbinghaus",-0.2687,0.6,"Ebbinghaus_0.60000_-0.2687","B",31,768623,1.9,"ArrowRight","true",0,"Incongruent",0.2687,"Incongruent - Mild","Easy"
"S002","Ebbinghaus",0.2687,-1.2,"Ebbinghaus_-1.2000_0.26870","B",32,771236,1.664,"ArrowRight","false",1,"Congruent",0.2687,"Congruent - Strong","Easy"
"S002","Ebbinghaus",-0.2687,-0.6,"Ebbinghaus_-0.6000_-0.2687","B",33,773587,0.956,"ArrowRight","true",0,"Congruent",0.2687,"Congruent - Mild","Easy"
"S002","Ebbinghaus",-0.2687,-0.9,"Ebbinghaus_-0.9000_-0.2687","B",34,775199,1.008,"ArrowRight","true",0,"Congruent",0.2687,"Congruent - Strong","Easy"
"S002","Ebbinghaus",-0.41515,1.2,"Ebbinghaus_1.20000_-0.41515","B",35,777280,1.169,"ArrowLeft","false",1,"Incongruent",0.41515,"Incongruent - Strong","Easy"
"S002","Ebbinghaus",-0.05,-0.9,"Ebbinghaus_-0.9000_-0.0500","B",36,779283,0.87,"ArrowLeft","false",1,"Congruent",0.05,"Congruent - Strong","Hard"
"S002","Ebbinghaus",-0.41515,-1.2,"Ebbinghaus_-1.2000_-0.41515","B",37,781254,1.298,"ArrowRight","true",0,"Congruent",0.41515,"Congruent - Strong","Easy"
"S002","Ebbinghaus",0.14856,-1.2,"Ebbinghaus_-1.2000_0.14856","B",38,783545,0.628,"ArrowLeft","true",0,"Congruent",0.14856,"Congruent - Strong","Hard"
"S002","Ebbinghaus",0.41515,-1.2,"Ebbinghaus_-1.2000_0.41515","B",39,785205,1.581,"ArrowRight","false",1,"Congruent",0.41515,"Congruent - Strong","Easy"
"S002","Ebbinghaus",0.14856,-0.9,"Ebbinghaus_-0.9000_0.14856","B",40,787717,0.601,"ArrowRight","false",1,"Congruent",0.14856,"Congruent - Strong","Hard"
"S002","Ebbinghaus",-0.14856,-1.2,"Ebbinghaus_-1.2000_-0.14856","B",41,789001,1.169,"ArrowRight","true",0,"Congruent",0.14856,"Congruent - Strong","Hard"
"S002","Ebbinghaus",-0.05,-0.3,"Ebbinghaus_-0.3000_-0.0500","B",42,791049,1.316,"ArrowRight","true",0,"Congruent",0.05,"Congruent - Mild","Hard"
"S002","Ebbinghaus",0.14856,0.9,"Ebbinghaus_0.90000_0.14856","B",43,793406,1.092,"ArrowRight","false",1,"Incongruent",0.14856,"Incongruent - Strong","Hard"
"S002","Ebbinghaus",0.05,0.9,"Ebbinghaus_0.90000_0.05000","B",44,795527,0.709,"ArrowRight","false",1,"Incongruent",0.05,"Incongruent - Strong","Hard"
"S002","Ebbinghaus",0.41515,1.5,"Ebbinghaus_1.50000_0.41515","B",45,796907,0.886,"ArrowLeft","true",0,"Incongruent",0.41515,"Incongruent - Strong","Easy"
"S002","Ebbinghaus",0.14856,1.5,"Ebbinghaus_1.50000_0.14856","B",46,798701,0.622,"ArrowLeft","true",0,"Incongruent",0.14856,"Incongruent - Strong","Hard"
"S002","Ebbinghaus",-0.41515,0.6,"Ebbinghaus_0.60000_-0.41515","B",47,800312,1.042,"ArrowRight","true",0,"Incongruent",0.41515,"Incongruent - Mild","Easy"
"S002","Ebbinghaus",0.2687,0.6,"Ebbinghaus_0.60000_0.26870","B",48,802040,1.437,"ArrowRight","false",1,"Incongruent",0.2687,"Incongruent - Mild","Easy"
"S002","Ebbinghaus",-0.05,-1.2,"Ebbinghaus_-1.2000_-0.0500","B",49,804085,1.365,"ArrowRight","true",0,"Congruent",0.05,"Congruent - Strong","Hard"
"S002","Ebbinghaus",0.2687,-0.6,"Ebbinghaus_-0.6000_0.26870","B",50,806343,2.219,"ArrowRight","false",1,"Congruent",0.2687,"Congruent - Mild","Easy"
"S002","Ebbinghaus",0.2687,-0.3,"Ebbinghaus_-0.3000_0.26870","B",51,809247,1.625,"ArrowRight","false",1,"Congruent",0.2687,"Congruent - Mild","Easy"
"S002","Ebbinghaus",-0.41515,0.9,"Ebbinghaus_0.90000_-0.41515","B",52,811519,1.466,"ArrowRight","true",0,"Incongruent",0.41515,"Incongruent - Strong","Easy"
"S002","Ebbinghaus",-0.05,0.9,"Ebbinghaus_0.90000_-0.0500","B",53,814028,0.552,"ArrowRight","true",0,"Incongruent",0.05,"Incongruent - Strong","Hard"
"S002","Ebbinghaus",0.41515,1.2,"Ebbinghaus_1.20000_0.41515","B",54,815583,0.864,"ArrowRight","false",1,"Incongruent",0.41515,"Incongruent - Strong","Easy"
"S002","Ebbinghaus",-0.14856,0.9,"Ebbinghaus_0.90000_-0.14856","B",55,817122,1.239,"ArrowLeft","false",1,"Incongruent",0.14856,"Incongruent - Strong","Hard"
"S002","Ebbinghaus",0.41515,-1.5,"Ebbinghaus_-1.5000_0.41515","B",56,819464,1.501,"ArrowRight","false",1,"Congruent",0.41515,"Congruent - Strong","Easy"
"S002","Ebbinghaus",-0.14856,1.2,"Ebbinghaus_1.20000_-0.14856","B",57,822044,1.036,"ArrowRight","true",0,"Incongruent",0.14856,"Incongruent - Strong","Hard"
"S002","Ebbinghaus",0.41515,-0.9,"Ebbinghaus_-0.9000_0.41515","B",58,823977,1.25,"ArrowRight","false",1,"Congruent",0.41515,"Congruent - Strong","Easy"
"S002","Ebbinghaus",-0.2687,-0.3,"Ebbinghaus_-0.3000_-0.2687","B",59,826282,0.786,"ArrowRight","true",0,"Congruent",0.2687,"Congruent - Mild","Easy"
"S002","Ebbinghaus",-0.41515,-0.6,"Ebbinghaus_-0.6000_-0.41515","B",60,827742,3.208,"ArrowRight","true",0,"Congruent",0.41515,"Congruent - Mild","Easy"
"S002","Ebbinghaus",-0.14856,0.3,"Ebbinghaus_0.30000_-0.14856","B",61,831907,1.361,"ArrowRight","true",0,"Incongruent",0.14856,"Incongruent - Mild","Hard"
"S002","Ebbinghaus",-0.41515,-0.9,"Ebbinghaus_-0.9000_-0.41515","B",62,833955,1.993,"ArrowRight","true",0,"Congruent",0.41515,"Congruent - Strong","Easy"
"S002","Ebbinghaus",-0.41515,-0.3,"Ebbinghaus_-0.3000_-0.41515","B",63,836976,1.74,"ArrowRight","true",0,"Congruent",0.41515,"Congruent - Mild","Easy"
"S002","Ebbinghaus",0.14856,-0.6,"Ebbinghaus_-0.6000_0.14856","B",64,839791,0.46,"ArrowRight","false",1,"Congruent",0.14856,"Congruent - Mild","Hard"
"S002","Ebbinghaus",0.05,-0.6,"Ebbinghaus_-0.6000_0.05000","B",65,841255,0.276,"ArrowRight","false",1,"Congruent",0.05,"Congruent - Mild","Hard"
"S002","Ebbinghaus",-0.14856,-1.5,"Ebbinghaus_-1.5000_-0.14856","B",66,842477,1.76,"ArrowRight","true",0,"Congruent",0.14856,"Congruent - Strong","Hard"
"S002","Ebbinghaus",-0.05,-0.6,"Ebbinghaus_-0.6000_-0.0500","B",67,845148,0.67,"ArrowRight","true",0,"Congruent",0.05,"Congruent - Mild","Hard"
"S002","Ebbinghaus",0.05,0.6,"Ebbinghaus_0.60000_0.05000","B",68,846523,1.063,"ArrowRight","false",1,"Incongruent",0.05,"Incongruent - Mild","Hard"
"S002","Ebbinghaus",-0.05,1.2,"Ebbinghaus_1.20000_-0.0500","B",69,848341,0.902,"ArrowRight","true",0,"Incongruent",0.05,"Incongruent - Strong","Hard"
"S002","Ebbinghaus",0.05,0.3,"Ebbinghaus_0.30000_0.05000","B",70,849966,1.649,"ArrowLeft","true",0,"Incongruent",0.05,"Incongruent - Mild","Hard"
"S002","Ebbinghaus",-0.14856,-0.6,"Ebbinghaus_-0.6000_-0.14856","B",71,852229,1.431,"ArrowLeft","false",1,"Congruent",0.14856,"Congruent - Mild","Hard"
"S002","Ebbinghaus",0.05,1.2,"Ebbinghaus_1.20000_0.05000","B",72,854283,3.509,"ArrowRight","false",1,"Incongruent",0.05,"Incongruent - Strong","Hard"
"S002","Ebbinghaus",0.2687,0.3,"Ebbinghaus_0.30000_0.26870","B",73,858743,0.735,"ArrowRight","false",1,"Incongruent",0.2687,"Incongruent - Mild","Easy"
"S002","Ebbinghaus",0.14856,0.3,"Ebbinghaus_0.30000_0.14856","B",74,860517,1.437,"ArrowLeft","true",0,"Incongruent",0.14856,"Incongruent - Mild","Hard"
"S002","Ebbinghaus",0.41515,-0.3,"Ebbinghaus_-0.3000_0.41515","B",75,862577,0.993,"ArrowLeft","true",0,"Congruent",0.41515,"Congruent - Mild","Easy"
"S002","Ebbinghaus",-0.14856,-0.3,"Ebbinghaus_-0.3000_-0.14856","B",76,864471,1.281,"ArrowLeft","false",1,"Congruent",0.14856,"Congruent - Mild","Hard"
"S002","Ebbinghaus",0.2687,1.5,"Ebbinghaus_1.50000_0.26870","B",77,866574,1.515,"ArrowLeft","true",0,"Incongruent",0.2687,"Incongruent - Strong","Easy"
"S002","Ebbinghaus",-0.41515,0.3,"Ebbinghaus_0.30000_-0.41515","B",78,869008,0.483,"ArrowLeft","false",1,"Incongruent",0.41515,"Incongruent - Mild","Easy"
"S002","Ebbinghaus",0.14856,-1.5,"Ebbinghaus_-1.5000_0.14856","B",79,870551,0.657,"ArrowLeft","true",0,"Congruent",0.14856,"Congruent - Strong","Hard"
"S002","Ebbinghaus",0.41515,0.9,"Ebbinghaus_0.90000_0.41515","B",80,872217,1.75,"ArrowLeft","true",0,"Incongruent",0.41515,"Incongruent - Strong","Easy"
"S002","VerticalHorizontal",-0.24909,-36,"VerticalHorizontal_-36.000_-0.24909","B",1,882027,2.771,"ArrowRight","true",0,"Congruent",0.24909,"Congruent - Strong","Easy"
"S002","VerticalHorizontal",-0.16122,45,"VerticalHorizontal_45.0000_-0.16122","B",2,885479,1.376,"ArrowRight","true",0,"Incongruent",0.16122,"Incongruent - Strong","Easy"
"S002","VerticalHorizontal",0.03,-36,"VerticalHorizontal_-36.000_0.03000","B",3,887511,1.54,"ArrowRight","false",1,"Congruent",0.03,"Congruent - Strong","Hard"
"S002","VerticalHorizontal",-0.24909,-45,"VerticalHorizontal_-45.000_-0.24909","B",4,889980,0.331,"ArrowLeft","false",1,"Congruent",0.24909,"Congruent - Strong","Easy"
"S002","VerticalHorizontal",0.24909,18,"VerticalHorizontal_18.0000_0.24909","B",5,891011,1.809,"ArrowLeft","true",0,"Incongruent",0.24909,"Incongruent - Mild","Easy"
"S002","VerticalHorizontal",-0.03,36,"VerticalHorizontal_36.0000_-0.0300","B",6,893701,1.79,"ArrowRight","true",0,"Incongruent",0.03,"Incongruent - Strong","Hard"
"S002","VerticalHorizontal",0.24909,-27,"VerticalHorizontal_-27.000_0.24909","B",7,896558,1.404,"ArrowRight","false",1,"Congruent",0.24909,"Congruent - Strong","Easy"
"S002","VerticalHorizontal",0.24909,45,"VerticalHorizontal_45.0000_0.24909","B",8,899050,0.264,"ArrowRight","false",1,"Incongruent",0.24909,"Incongruent - Strong","Easy"
"S002","VerticalHorizontal",-0.24909,45,"VerticalHorizontal_45.0000_-0.24909","B",9,900231,0.948,"ArrowLeft","false",1,"Incongruent",0.24909,"Incongruent - Strong","Easy"
"S002","VerticalHorizontal",0.24909,9,"VerticalHorizontal_9.00000_0.24909","B",10,901909,2.179,"ArrowRight","false",1,"Incongruent",0.24909,"Incongruent - Mild","Easy"
"S002","VerticalHorizontal",0.03,-18,"VerticalHorizontal_-18.000_0.03000","B",11,905147,1.194,"ArrowRight","false",1,"Congruent",0.03,"Congruent - Mild","Hard"
"S002","VerticalHorizontal",-0.16122,27,"VerticalHorizontal_27.0000_-0.16122","B",12,907230,0.968,"ArrowRight","true",0,"Incongruent",0.16122,"Incongruent - Strong","Easy"
"S002","VerticalHorizontal",0.08913,-18,"VerticalHorizontal_-18.000_0.08913","B",13,909278,0.779,"ArrowRight","false",1,"Congruent",0.08913,"Congruent - Mild","Hard"
"S002","VerticalHorizontal",0.08913,36,"VerticalHorizontal_36.0000_0.08913","B",14,911091,1.948,"ArrowLeft","true",0,"Incongruent",0.08913,"Incongruent - Strong","Hard"
"S002","VerticalHorizontal",-0.16122,36,"VerticalHorizontal_36.0000_-0.16122","B",15,913798,2.048,"ArrowRight","true",0,"Incongruent",0.16122,"Incongruent - Strong","Easy"
"S002","VerticalHorizontal",0.16122,-45,"VerticalHorizontal_-45.000_0.16122","B",16,916762,1.376,"ArrowRight","false",1,"Congruent",0.16122,"Congruent - Strong","Easy"
"S002","VerticalHorizontal",-0.16122,9,"VerticalHorizontal_9.00000_-0.16122","B",17,918888,1.735,"ArrowRight","true",0,"Incongruent",0.16122,"Incongruent - Mild","Easy"
"S002","VerticalHorizontal",0.08913,9,"VerticalHorizontal_9.00000_0.08913","B",18,921408,1.921,"ArrowRight","false",1,"Incongruent",0.08913,"Incongruent - Mild","Hard"
"S002","VerticalHorizontal",-0.16122,-45,"VerticalHorizontal_-45.000_-0.16122","B",19,924005,2.543,"ArrowRight","true",0,"Congruent",0.16122,"Congruent - Strong","Easy"
"S002","VerticalHorizontal",-0.08913,9,"VerticalHorizontal_9.00000_-0.08913","B",20,927529,0.716,"ArrowRight","true",0,"Incongruent",0.08913,"Incongruent - Mild","Hard"
"S002","VerticalHorizontal",-0.24909,18,"VerticalHorizontal_18.0000_-0.24909","B",21,929285,0.694,"ArrowRight","true",0,"Incongruent",0.24909,"Incongruent - Mild","Easy"
"S002","VerticalHorizontal",-0.16122,-9,"VerticalHorizontal_-9.0000_-0.16122","B",22,930745,9.562,"ArrowRight","true",0,"Congruent",0.16122,"Congruent - Mild","Easy"
"S002","VerticalHorizontal",-0.24909,-27,"VerticalHorizontal_-27.000_-0.24909","B",23,941244,0.302,"ArrowLeft","false",1,"Congruent",0.24909,"Congruent - Strong","Easy"
"S002","VerticalHorizontal",-0.03,45,"VerticalHorizontal_45.0000_-0.0300","B",24,942235,1.238,"ArrowLeft","false",1,"Incongruent",0.03,"Incongruent - Strong","Hard"
"S002","VerticalHorizontal",-0.08913,27,"VerticalHorizontal_27.0000_-0.08913","B",25,944185,1.676,"ArrowLeft","false",1,"Incongruent",0.08913,"Incongruent - Strong","Hard"
"S002","VerticalHorizontal",0.16122,9,"VerticalHorizontal_9.00000_0.16122","B",26,946518,1.247,"ArrowLeft","true",0,"Incongruent",0.16122,"Incongruent - Mild","Easy"
"S002","VerticalHorizontal",-0.03,-9,"VerticalHorizontal_-9.0000_-0.0300","B",27,948817,0.465,"ArrowRight","true",0,"Congruent",0.03,"Congruent - Mild","Hard"
"S002","VerticalHorizontal",0.24909,-45,"VerticalHorizontal_-45.000_0.24909","B",28,950199,0.108,"ArrowLeft","true",0,"Congruent",0.24909,"Congruent - Strong","Easy"
"S002","VerticalHorizontal",0.03,18,"VerticalHorizontal_18.0000_0.03000","B",29,951282,0.023,"ArrowLeft","true",0,"Incongruent",0.03,"Incongruent - Mild","Hard"
"S002","VerticalHorizontal",-0.16122,18,"VerticalHorizontal_18.0000_-0.16122","B",30,951991,1.408,"ArrowRight","true",0,"Incongruent",0.16122,"Incongruent - Mild","Easy"
"S002","VerticalHorizontal",0.16122,27,"VerticalHorizontal_27.0000_0.16122","B",31,954291,0.247,"ArrowRight","false",1,"Incongruent",0.16122,"Incongruent - Strong","Easy"
"S002","VerticalHorizontal",0.08913,45,"VerticalHorizontal_45.0000_0.08913","B",32,955467,0.201,"ArrowRight","false",1,"Incongruent",0.08913,"Incongruent - Strong","Hard"
"S002","VerticalHorizontal",0.03,-9,"VerticalHorizontal_-9.0000_0.03000","B",33,956477,0.712,"ArrowRight","false",1,"Congruent",0.03,"Congruent - Mild","Hard"
"S002","VerticalHorizontal",-0.08913,-9,"VerticalHorizontal_-9.0000_-0.08913","B",34,958005,1.484,"ArrowRight","true",0,"Congruent",0.08913,"Congruent - Mild","Hard"
"S002","VerticalHorizontal",0.08913,-9,"VerticalHorizontal_-9.0000_0.08913","B",35,960404,1.304,"ArrowRight","false",1,"Congruent",0.08913,"Congruent - Mild","Hard"
"S002","VerticalHorizontal",-0.24909,9,"VerticalHorizontal_9.00000_-0.24909","B",36,962765,0.245,"ArrowRight","true",0,"Incongruent",0.24909,"Incongruent - Mild","Easy"
"S002","VerticalHorizontal",0.24909,-9,"VerticalHorizontal_-9.0000_0.24909","B",37,963647,1.419,"ArrowRight","false",1,"Congruent",0.24909,"Congruent - Mild","Easy"
"S002","VerticalHorizontal",-0.08913,-45,"VerticalHorizontal_-45.000_-0.08913","B",38,965907,0.532,"ArrowRight","true",0,"Congruent",0.08913,"Congruent - Strong","Hard"
"S002","VerticalHorizontal",0.16122,-36,"VerticalHorizontal_-36.000_0.16122","B",39,967502,1.776,"ArrowRight","false",1,"Congruent",0.16122,"Congruent - Strong","Easy"
"S002","VerticalHorizontal",0.16122,-18,"VerticalHorizontal_-18.000_0.16122","B",40,970378,0.418,"ArrowLeft","true",0,"Congruent",0.16122,"Congruent - Mild","Easy"
"S002","VerticalHorizontal",-0.08913,36,"VerticalHorizontal_36.0000_-0.08913","B",41,971810,0.69,"ArrowLeft","false",1,"Incongruent",0.08913,"Incongruent - Strong","Hard"
"S002","VerticalHorizontal",-0.03,27,"VerticalHorizontal_27.0000_-0.0300","B",42,973470,0.172,"ArrowLeft","false",1,"Incongruent",0.03,"Incongruent - Strong","Hard"
"S002","VerticalHorizontal",-0.03,18,"VerticalHorizontal_18.0000_-0.0300","B",43,974289,1.366,"ArrowLeft","false",1,"Incongruent",0.03,"Incongruent - Mild","Hard"
"S002","VerticalHorizontal",-0.03,-18,"VerticalHorizontal_-18.000_-0.0300","B",44,976462,0.809,"ArrowLeft","false",1,"Congruent",0.03,"Congruent - Mild","Hard"
"S002","VerticalHorizontal",0.24909,-18,"VerticalHorizontal_-18.000_0.24909","B",45,977876,0.901,"ArrowLeft","true",0,"Congruent",0.24909,"Congruent - Mild","Easy"
"S002","VerticalHorizontal",-0.03,-27,"VerticalHorizontal_-27.000_-0.0300","B",46,979684,0.223,"ArrowLeft","false",1,"Congruent",0.03,"Congruent - Strong","Hard"
"S002","VerticalHorizontal",-0.16122,-36,"VerticalHorizontal_-36.000_-0.16122","B",47,980798,0.169,"ArrowLeft","false",1,"Congruent",0.16122,"Congruent - Strong","Easy"
"S002","VerticalHorizontal",-0.16122,-18,"VerticalHorizontal_-18.000_-0.16122","B",48,981654,0.464,"ArrowLeft","false",1,"Congruent",0.16122,"Congruent - Mild","Easy"
"S002","VerticalHorizontal",-0.08913,45,"VerticalHorizontal_45.0000_-0.08913","B",49,982951,0.681,"ArrowLeft","false",1,"Incongruent",0.08913,"Incongruent - Strong","Hard"
"S002","VerticalHorizontal",0.16122,18,"VerticalHorizontal_18.0000_0.16122","B",50,984237,0.641,"ArrowLeft","true",0,"Incongruent",0.16122,"Incongruent - Mild","Easy"
"S002","VerticalHorizontal",0.03,-45,"VerticalHorizontal_-45.000_0.03000","B",51,985490,1.879,"ArrowLeft","true",0,"Congruent",0.03,"Congruent - Strong","Hard"
"S002","VerticalHorizontal",0.16122,45,"VerticalHorizontal_45.0000_0.16122","B",52,988053,1.017,"ArrowRight","false",1,"Incongruent",0.16122,"Incongruent - Strong","Easy"
"S002","VerticalHorizontal",0.08913,18,"VerticalHorizontal_18.0000_0.08913","B",53,990050,0.253,"ArrowLeft","true",0,"Incongruent",0.08913,"Incongruent - Mild","Hard"
"S002","VerticalHorizontal",0.03,9,"VerticalHorizontal_9.00000_0.03000","B",54,991201,0.157,"ArrowLeft","true",0,"Incongruent",0.03,"Incongruent - Mild","Hard"
"S002","VerticalHorizontal",0.16122,-27,"VerticalHorizontal_-27.000_0.16122","B",55,992140,0.575,"ArrowLeft","true",0,"Congruent",0.16122,"Congruent - Strong","Easy"
"S002","VerticalHorizontal",0.03,27,"VerticalHorizontal_27.0000_0.03000","B",56,993562,0.693,"ArrowLeft","true",0,"Incongruent",0.03,"Incongruent - Strong","Hard"
"S002","VerticalHorizontal",-0.03,-36,"VerticalHorizontal_-36.000_-0.0300","B",57,995159,0.584,"ArrowLeft","false",1,"Congruent",0.03,"Congruent - Strong","Hard"
"S002","VerticalHorizontal",0.16122,-9,"VerticalHorizontal_-9.0000_0.16122","B",58,996800,0.339,"ArrowLeft","true",0,"Congruent",0.16122,"Congruent - Mild","Easy"
"S002","VerticalHorizontal",-0.08913,-27,"VerticalHorizontal_-27.000_-0.08913","B",59,997883,0.266,"ArrowLeft","false",1,"Congruent",0.08913,"Congruent - Strong","Hard"
"S002","VerticalHorizontal",-0.24909,36,"VerticalHorizontal_36.0000_-0.24909","B",60,998872,0.75,"ArrowRight","true",0,"Incongruent",0.24909,"Incongruent - Strong","Easy"
"S002","VerticalHorizontal",0.24909,36,"VerticalHorizontal_36.0000_0.24909","B",61,1000369,0.599,"ArrowRight","false",1,"Incongruent",0.24909,"Incongruent - Strong","Easy"
"S002","VerticalHorizontal",-0.08913,-18,"VerticalHorizontal_-18.000_-0.08913","B",62,1001845,0.474,"ArrowRight","true",0,"Congruent",0.08913,"Congruent - Mild","Hard"
"S002","VerticalHorizontal",-0.08913,18,"VerticalHorizontal_18.0000_-0.08913","B",63,1003261,0.519,"ArrowRight","true",0,"Incongruent",0.08913,"Incongruent - Mild","Hard"
"S002","VerticalHorizontal",0.08913,-27,"VerticalHorizontal_-27.000_0.08913","B",64,1004509,1.071,"ArrowLeft","true",0,"Congruent",0.08913,"Congruent - Strong","Hard"
"S002","VerticalHorizontal",-0.03,-45,"VerticalHorizontal_-45.000_-0.0300","B",65,1006622,0.21,"ArrowLeft","false",1,"Congruent",0.03,"Congruent - Strong","Hard"
"S002","VerticalHorizontal",0.24909,27,"VerticalHorizontal_27.0000_0.24909","B",66,1007690,0.239,"ArrowLeft","true",0,"Incongruent",0.24909,"Incongruent - Strong","Easy"
"S002","VerticalHorizontal",-0.03,9,"VerticalHorizontal_9.00000_-0.0300","B",67,1008848,0.64,"ArrowLeft","false",1,"Incongruent",0.03,"Incongruent - Mild","Hard"
"S002","VerticalHorizontal",0.08913,-45,"VerticalHorizontal_-45.000_0.08913","B",68,1010264,0.574,"ArrowRight","false",1,"Congruent",0.08913,"Congruent - Strong","Hard"
"S002","VerticalHorizontal",0.08913,27,"VerticalHorizontal_27.0000_0.08913","B",69,1011849,0.286,"ArrowRight","false",1,"Incongruent",0.08913,"Incongruent - Strong","Hard"
"S002","VerticalHorizontal",0.03,45,"VerticalHorizontal_45.0000_0.03000","B",70,1012965,0.789,"ArrowRight","false",1,"Incongruent",0.03,"Incongruent - Strong","Hard"
"S002","VerticalHorizontal",0.16122,36,"VerticalHorizontal_36.0000_0.16122","B",71,1014584,0.573,"ArrowLeft","true",0,"Incongruent",0.16122,"Incongruent - Strong","Easy"
"S002","VerticalHorizontal",0.03,-27,"VerticalHorizontal_-27.000_0.03000","B",72,1016196,0.302,"ArrowLeft","true",0,"Congruent",0.03,"Congruent - Strong","Hard"
"S002","VerticalHorizontal",0.03,36,"VerticalHorizontal_36.0000_0.03000","B",73,1017510,0.243,"ArrowLeft","true",0,"Incongruent",0.03,"Incongruent - Strong","Hard"
"S002","VerticalHorizontal",-0.24909,27,"VerticalHorizontal_27.0000_-0.24909","B",74,1018659,0.434,"ArrowLeft","false",1,"Incongruent",0.24909,"Incongruent - Strong","Easy"
"S002","VerticalHorizontal",-0.16122,-27,"VerticalHorizontal_-27.000_-0.16122","B",75,1019707,0.794,"ArrowLeft","false",1,"Congruent",0.16122,"Congruent - Strong","Easy"
"S002","VerticalHorizontal",0.24909,-36,"VerticalHorizontal_-36.000_0.24909","B",76,1021587,0.551,"ArrowLeft","true",0,"Congruent",0.24909,"Congruent - Strong","Easy"
"S002","VerticalHorizontal",0.08913,-36,"VerticalHorizontal_-36.000_0.08913","B",77,1023150,0.295,"ArrowRight","false",1,"Congruent",0.08913,"Congruent - Strong","Hard"
"S002","VerticalHorizontal",-0.24909,-9,"VerticalHorizontal_-9.0000_-0.24909","B",78,1024259,1.103,"ArrowLeft","false",1,"Congruent",0.24909,"Congruent - Mild","Easy"
"S002","VerticalHorizontal",-0.08913,-36,"VerticalHorizontal_-36.000_-0.08913","B",79,1026271,0.39,"ArrowLeft","false",1,"Congruent",0.08913,"Congruent - Strong","Hard"
"S002","VerticalHorizontal",-0.24909,-18,"VerticalHorizontal_-18.000_-0.24909","B",80,1027440,0.646,"ArrowLeft","false",1,"Congruent",0.24909,"Congruent - Mild","Easy"
"S003","MullerLyer",-0.1337,24,"MullerLyer_24.0000_-0.1337","B",1,224338,0.287,"ArrowDown","true",0,"Incongruent",0.1337,"Incongruent - Strong","Hard"
"S003","MullerLyer",-0.045,-6,"MullerLyer_-6.0000_-0.0450","B",2,225259,0.693,"ArrowDown","true",0,"Congruent",0.045,"Congruent - Mild","Hard"
"S003","MullerLyer",-0.045,-24,"MullerLyer_-24.000_-0.0450","B",3,226956,0.31,"ArrowDown","true",0,"Congruent",0.045,"Congruent - Strong","Hard"
"S003","MullerLyer",0.045,30,"MullerLyer_30.0000_0.04500","B",4,228110,0.149,"ArrowDown","false",1,"Incongruent",0.045,"Incongruent - Strong","Hard"
"S003","MullerLyer",0.1337,-18,"MullerLyer_-18.000_0.13370","B",5,229092,0.315,"ArrowDown","false",1,"Congruent",0.1337,"Congruent - Strong","Hard"
"S003","MullerLyer",0.045,6,"MullerLyer_6.00000_0.04500","B",6,230310,0.332,"ArrowDown","false",1,"Incongruent",0.045,"Incongruent - Mild","Hard"
"S003","MullerLyer",-0.1337,-30,"MullerLyer_-30.000_-0.1337","B",7,231623,0.597,"ArrowDown","true",0,"Congruent",0.1337,"Congruent - Strong","Hard"
"S003","MullerLyer",-0.37364,-6,"MullerLyer_-6.0000_-0.37364","B",8,232933,0.366,"ArrowDown","true",0,"Congruent",0.37364,"Congruent - Mild","Easy"
"S003","MullerLyer",0.1337,12,"MullerLyer_12.0000_0.13370","B",9,233999,0.326,"ArrowDown","false",1,"Incongruent",0.1337,"Incongruent - Mild","Hard"
"S003","MullerLyer",-0.045,24,"MullerLyer_24.0000_-0.0450","B",10,235427,0.246,"ArrowDown","true",0,"Incongruent",0.045,"Incongruent - Strong","Hard"
"S003","MullerLyer",0.24183,-18,"MullerLyer_-18.000_0.24183","B",11,236686,0.07,"ArrowDown","false",1,"Congruent",0.24183,"Congruent - Strong","Easy"
"S003","MullerLyer",-0.1337,12,"MullerLyer_12.0000_-0.1337","B",12,237658,0.067,"ArrowDown","true",0,"Incongruent",0.1337,"Incongruent - Mild","Hard"
"S003","MullerLyer",0.045,-18,"MullerLyer_-18.000_0.04500","B",13,238546,0.171,"ArrowDown","false",1,"Congruent",0.045,"Congruent - Strong","Hard"
"S003","MullerLyer",0.1337,24,"MullerLyer_24.0000_0.13370","B",14,239436,0.331,"ArrowUp","true",0,"Incongruent",0.1337,"Incongruent - Strong","Hard"
"S003","MullerLyer",0.24183,-30,"MullerLyer_-30.000_0.24183","B",15,240752,0.328,"ArrowUp","true",0,"Congruent",0.24183,"Congruent - Strong","Easy"
"S003","MullerLyer",0.24183,-6,"MullerLyer_-6.0000_0.24183","B",16,242153,0.443,"ArrowDown","false",1,"Congruent",0.24183,"Congruent - Mild","Easy"
"S003","MullerLyer",-0.24183,-24,"MullerLyer_-24.000_-0.24183","B",17,243611,0.277,"ArrowUp","false",1,"Congruent",0.24183,"Congruent - Strong","Easy"
"S003","MullerLyer",-0.1337,6,"MullerLyer_6.00000_-0.1337","B",18,244544,0.26,"ArrowUp","false",1,"Incongruent",0.1337,"Incongruent - Mild","Hard"
"S003","MullerLyer",0.045,24,"MullerLyer_24.0000_0.04500","B",19,245650,0.101,"ArrowDown","false",1,"Incongruent",0.045,"Incongruent - Strong","Hard"
"S003","MullerLyer",0.24183,-24,"MullerLyer_-24.000_0.24183","B",20,246697,0.314,"ArrowUp","true",0,"Congruent",0.24183,"Congruent - Strong","Easy"
"S003","MullerLyer",0.045,18,"MullerLyer_18.0000_0.04500","B",21,247874,0.383,"ArrowDown","false",1,"Incongruent",0.045,"Incongruent - Strong","Hard"
"S003","MullerLyer",-0.1337,-12,"MullerLyer_-12.000_-0.1337","B",22,248956,0.532,"ArrowUp","false",1,"Congruent",0.1337,"Congruent - Mild","Hard"
"S003","MullerLyer",-0.24183,6,"MullerLyer_6.00000_-0.24183","B",23,250497,0.342,"ArrowDown","true",0,"Incongruent",0.24183,"Incongruent - Mild","Easy"
"S003","MullerLyer",-0.37364,-12,"MullerLyer_-12.000_-0.37364","B",24,251684,0.701,"ArrowUp","false",1,"Congruent",0.37364,"Congruent - Mild","Easy"
"S003","MullerLyer",0.24183,12,"MullerLyer_12.0000_0.24183","B",25,253133,0.466,"ArrowDown","false",1,"Incongruent",0.24183,"Incongruent - Mild","Easy"
"S003","MullerLyer",0.1337,30,"MullerLyer_30.0000_0.13370","B",26,254495,0.098,"ArrowUp","true",0,"Incongruent",0.1337,"Incongruent - Strong","Hard"
"S003","MullerLyer",0.1337,-12,"MullerLyer_-12.000_0.13370","B",27,255533,0.318,"ArrowDown","false",1,"Congruent",0.1337,"Congruent - Mild","Hard"
"S003","MullerLyer",-0.045,18,"MullerLyer_18.0000_-0.0450","B",28,256904,0.359,"ArrowDown","true",0,"Incongruent",0.045,"Incongruent - Strong","Hard"
"S003","MullerLyer",-0.37364,18,"MullerLyer_18.0000_-0.37364","B",29,258332,0.586,"ArrowUp","false",1,"Incongruent",0.37364,"Incongruent - Strong","Easy"
"S003","MullerLyer",0.045,12,"MullerLyer_12.0000_0.04500","B",30,259606,0.497,"ArrowDown","false",1,"Incongruent",0.045,"Incongruent - Mild","Hard"
"S003","MullerLyer",0.24183,30,"MullerLyer_30.0000_0.24183","B",31,261172,0.772,"ArrowDown","false",1,"Incongruent",0.24183,"Incongruent - Strong","Easy"
"S003","MullerLyer",-0.37364,-18,"MullerLyer_-18.000_-0.37364","B",32,262707,0.149,"ArrowUp","false",1,"Congruent",0.37364,"Congruent - Strong","Easy"
"S003","MullerLyer",-0.37364,-24,"MullerLyer_-24.000_-0.37364","B",33,263500,0.396,"ArrowDown","true",0,"Congruent",0.37364,"Congruent - Strong","Easy"
"S003","MullerLyer",-0.045,30,"MullerLyer_30.0000_-0.0450","B",34,264985,0.183,"ArrowDown","true",0,"Incongruent",0.045,"Incongruent - Strong","Hard"
"S003","MullerLyer",0.37364,6,"MullerLyer_6.00000_0.37364","B",35,266158,1.232,"ArrowDown","false",1,"Incongruent",0.37364,"Incongruent - Mild","Easy"
"S003","MullerLyer",-0.37364,12,"MullerLyer_12.0000_-0.37364","B",36,268016,0.792,"ArrowDown","true",0,"Incongruent",0.37364,"Incongruent - Mild","Easy"
"S003","MullerLyer",0.24183,24,"MullerLyer_24.0000_0.24183","B",37,269523,0.396,"ArrowUp","true",0,"Incongruent",0.24183,"Incongruent - Strong","Easy"
"S003","MullerLyer",-0.24183,-30,"MullerLyer_-30.000_-0.24183","B",38,270897,0.843,"ArrowUp","false",1,"Congruent",0.24183,"Congruent - Strong","Easy"
"S003","MullerLyer",0.37364,30,"MullerLyer_30.0000_0.37364","B",39,272469,0.726,"ArrowDown","false",1,"Incongruent",0.37364,"Incongruent - Strong","Easy"
"S003","MullerLyer",0.37364,-24,"MullerLyer_-24.000_0.37364","B",40,273896,0.618,"ArrowDown","false",1,"Congruent",0.37364,"Congruent - Strong","Easy"
"S003","MullerLyer",-0.045,-18,"MullerLyer_-18.000_-0.0450","B",41,275166,0.362,"ArrowDown","true",0,"Congruent",0.045,"Congruent - Strong","Hard"
"S003","MullerLyer",-0.24183,24,"MullerLyer_24.0000_-0.24183","B",42,275865,0.894,"ArrowUp","false",1,"Incongruent",0.24183,"Incongruent - Strong","Easy"
"S003","MullerLyer",-0.24183,18,"MullerLyer_18.0000_-0.24183","B",43,277540,0.927,"ArrowUp","false",1,"Incongruent",0.24183,"Incongruent - Strong","Easy"
"S003","MullerLyer",-0.045,-12,"MullerLyer_-12.000_-0.0450","B",44,279399,0.256,"ArrowDown","true",0,"Congruent",0.045,"Congruent - Mild","Hard"
"S003","MullerLyer",0.1337,-24,"MullerLyer_-24.000_0.13370","B",45,280585,0.37,"ArrowDown","false",1,"Congruent",0.1337,"Congruent - Strong","Hard"
"S003","MullerLyer",-0.37364,6,"MullerLyer_6.00000_-0.37364","B",46,281645,0.47,"ArrowUp","false",1,"Incongruent",0.37364,"Incongruent - Mild","Easy"
"S003","MullerLyer",-0.045,12,"MullerLyer_12.0000_-0.0450","B",47,282805,0.612,"ArrowUp","false",1,"Incongruent",0.045,"Incongruent - Mild","Hard"
"S003","MullerLyer",0.045,-12,"MullerLyer_-12.000_0.04500","B",48,284136,0.61,"ArrowUp","true",0,"Congruent",0.045,"Congruent - Mild","Hard"
"S003","MullerLyer",0.045,-6,"MullerLyer_-6.0000_0.04500","B",49,285467,1.468,"ArrowUp","true",0,"Congruent",0.045,"Congruent - Mild","Hard"
"S003","MullerLyer",-0.045,-30,"MullerLyer_-30.000_-0.0450","B",50,287839,0.807,"ArrowUp","false",1,"Congruent",0.045,"Congruent - Strong","Hard"
"S003","MullerLyer",-0.1337,18,"MullerLyer_18.0000_-0.1337","B",51,289463,1.81,"ArrowDown","true",0,"Incongruent",0.1337,"Incongruent - Strong","Hard"
"S003","MullerLyer",0.37364,24,"MullerLyer_24.0000_0.37364","B",52,292038,0.345,"ArrowDown","false",1,"Incongruent",0.37364,"Incongruent - Strong","Easy"
"S003","MullerLyer",-0.1337,-18,"MullerLyer_-18.000_-0.1337","B",53,293420,0.253,"ArrowDown","true",0,"Congruent",0.1337,"Congruent - Strong","Hard"
"S003","MullerLyer",-0.37364,24,"MullerLyer_24.0000_-0.37364","B",54,294553,1.285,"ArrowUp","false",1,"Incongruent",0.37364,"Incongruent - Strong","Easy"
"S003","MullerLyer",0.37364,-6,"MullerLyer_-6.0000_0.37364","B",55,296586,0.752,"ArrowUp","true",0,"Congruent",0.37364,"Congruent - Mild","Easy"
"S003","MullerLyer",-0.1337,-24,"MullerLyer_-24.000_-0.1337","B",56,298358,0.507,"ArrowDown","true",0,"Congruent",0.1337,"Congruent - Strong","Hard"
"S003","MullerLyer",0.37364,-18,"MullerLyer_-18.000_0.37364","B",57,299749,2.352,"ArrowDown","false",1,"Congruent",0.37364,"Congruent - Strong","Easy"
"S003","MullerLyer",0.24183,6,"MullerLyer_6.00000_0.24183","B",58,303059,1.329,"ArrowUp","true",0,"Incongruent",0.24183,"Incongruent - Mild","Easy"
"S003","MullerLyer",-0.24183,-12,"MullerLyer_-12.000_-0.24183","B",59,305042,2.659,"ArrowDown","true",0,"Congruent",0.24183,"Congruent - Mild","Easy"
"S003","MullerLyer",-0.1337,30,"MullerLyer_30.0000_-0.1337","B",60,308660,9.777,"ArrowDown","true",0,"Incongruent",0.1337,"Incongruent - Strong","Hard"
"S003","MullerLyer",0.37364,18,"MullerLyer_18.0000_0.37364","B",61,319392,0.585,"ArrowUp","true",0,"Incongruent",0.37364,"Incongruent - Strong","Easy"
"S003","MullerLyer",-0.24183,-18,"MullerLyer_-18.000_-0.24183","B",62,320668,1.343,"ArrowDown","true",0,"Congruent",0.24183,"Congruent - Strong","Easy"
"S003","MullerLyer",0.37364,-30,"MullerLyer_-30.000_0.37364","B",63,322889,1.722,"ArrowDown","false",1,"Congruent",0.37364,"Congruent - Strong","Easy"
"S003","MullerLyer",0.24183,18,"MullerLyer_18.0000_0.24183","B",64,325569,0.359,"ArrowUp","true",0,"Incongruent",0.24183,"Incongruent - Strong","Easy"
"S003","MullerLyer",0.045,-24,"MullerLyer_-24.000_0.04500","B",65,326567,0.764,"ArrowUp","true",0,"Congruent",0.045,"Congruent - Strong","Hard"
"S003","MullerLyer",-0.37364,-30,"MullerLyer_-30.000_-0.37364","B",66,328216,0.218,"ArrowDown","true",0,"Congruent",0.37364,"Congruent - Strong","Easy"
"S003","MullerLyer",-0.24183,30,"MullerLyer_30.0000_-0.24183","B",67,329177,0.253,"ArrowDown","true",0,"Incongruent",0.24183,"Incongruent - Strong","Easy"
"S003","MullerLyer",0.37364,-12,"MullerLyer_-12.000_0.37364","B",68,330213,0.589,"ArrowDown","false",1,"Congruent",0.37364,"Congruent - Mild","Easy"
"S003","MullerLyer",0.24183,-12,"MullerLyer_-12.000_0.24183","B",69,331891,0.347,"ArrowUp","true",0,"Congruent",0.24183,"Congruent - Mild","Easy"
"S003","MullerLyer",0.1337,-30,"MullerLyer_-30.000_0.13370","B",70,333113,0.439,"ArrowDown","false",1,"Congruent",0.1337,"Congruent - Strong","Hard"
"S003","MullerLyer",-0.24183,12,"MullerLyer_12.0000_-0.24183","B",71,334381,0.561,"ArrowDown","true",0,"Incongruent",0.24183,"Incongruent - Mild","Easy"
"S003","MullerLyer",-0.1337,-6,"MullerLyer_-6.0000_-0.1337","B",72,335645,0.69,"ArrowDown","true",0,"Congruent",0.1337,"Congruent - Mild","Hard"
"S003","MullerLyer",0.1337,18,"MullerLyer_18.0000_0.13370","B",73,337338,0.529,"ArrowUp","true",0,"Incongruent",0.1337,"Incongruent - Strong","Hard"
"S003","MullerLyer",-0.24183,-6,"MullerLyer_-6.0000_-0.24183","B",74,338565,0.343,"ArrowUp","false",1,"Congruent",0.24183,"Congruent - Mild","Easy"
"S003","MullerLyer",0.37364,12,"MullerLyer_12.0000_0.37364","B",75,339723,0.49,"ArrowUp","true",0,"Incongruent",0.37364,"Incongruent - Mild","Easy"
"S003","MullerLyer",-0.045,6,"MullerLyer_6.00000_-0.0450","B",76,341134,0.474,"ArrowUp","false",1,"Incongruent",0.045,"Incongruent - Mild","Hard"
"S003","MullerLyer",0.1337,6,"MullerLyer_6.00000_0.13370","B",77,342275,0.626,"ArrowDown","false",1,"Incongruent",0.1337,"Incongruent - Mild","Hard"
"S003","MullerLyer",0.1337,-6,"MullerLyer_-6.0000_0.13370","B",78,343960,0.715,"ArrowDown","false",1,"Congruent",0.1337,"Congruent - Mild","Hard"
"S003","MullerLyer",-0.37364,30,"MullerLyer_30.0000_-0.37364","B",79,345400,0.817,"ArrowDown","true",0,"Incongruent",0.37364,"Incongruent - Strong","Easy"
"S003","MullerLyer",0.045,-30,"MullerLyer_-30.000_0.04500","B",80,347221,0.372,"ArrowDown","false",1,"Congruent",0.045,"Congruent - Strong","Hard"
"S003","Ebbinghaus",-0.05,0.6,"Ebbinghaus_0.60000_-0.0500","B",1,356886,0.404,"ArrowRight","true",0,"Incongruent",0.05,"Incongruent - Mild","Hard"
"S003","Ebbinghaus",-0.14856,-0.6,"Ebbinghaus_-0.6000_-0.14856","B",2,358274,0.539,"ArrowLeft","false",1,"Congruent",0.14856,"Congruent - Mild","Hard"
"S003","Ebbinghaus",0.2687,0.3,"Ebbinghaus_0.30000_0.26870","B",3,359651,0.917,"ArrowLeft","true",0,"Incongruent",0.2687,"Incongruent - Mild","Easy"
"S003","Ebbinghaus",0.14856,-0.3,"Ebbinghaus_-0.3000_0.14856","B",4,361561,0.694,"ArrowLeft","true",0,"Congruent",0.14856,"Congruent - Mild","Hard"
"S003","Ebbinghaus",-0.2687,0.3,"Ebbinghaus_0.30000_-0.2687","B",5,362867,1.437,"ArrowLeft","false",1,"Incongruent",0.2687,"Incongruent - Mild","Easy"
"S003","Ebbinghaus",0.41515,-0.3,"Ebbinghaus_-0.3000_0.41515","B",6,365049,0.833,"ArrowLeft","true",0,"Congruent",0.41515,"Congruent - Mild","Easy"
"S003","Ebbinghaus",-0.2687,-0.3,"Ebbinghaus_-0.3000_-0.2687","B",7,366537,0.624,"ArrowRight","true",0,"Congruent",0.2687,"Congruent - Mild","Easy"
"S003","Ebbinghaus",-0.2687,1.2,"Ebbinghaus_1.20000_-0.2687","B",8,367804,1.13,"ArrowLeft","false",1,"Incongruent",0.2687,"Incongruent - Strong","Easy"
"S003","Ebbinghaus",-0.41515,-1.5,"Ebbinghaus_-1.5000_-0.41515","B",9,369775,0.312,"ArrowRight","true",0,"Congruent",0.41515,"Congruent - Strong","Easy"
"S003","Ebbinghaus",-0.14856,0.3,"Ebbinghaus_0.30000_-0.14856","B",10,370888,1.72,"ArrowRight","true",0,"Incongruent",0.14856,"Incongruent - Mild","Hard"
"S003","Ebbinghaus",-0.14856,1.5,"Ebbinghaus_1.50000_-0.14856","B",11,373448,0.655,"ArrowRight","true",0,"Incongruent",0.14856,"Incongruent - Strong","Hard"
"S003","Ebbinghaus",0.2687,0.9,"Ebbinghaus_0.90000_0.26870","B",12,374811,2.694,"ArrowRight","false",1,"Incongruent",0.2687,"Incongruent - Strong","Easy"
"S003","Ebbinghaus",0.41515,0.9,"Ebbinghaus_0.90000_0.41515","B",13,378398,0.607,"ArrowLeft","true",0,"Incongruent",0.41515,"Incongruent - Strong","Easy"
"S003","Ebbinghaus",-0.41515,-0.9,"Ebbinghaus_-0.9000_-0.41515","B",14,379684,1.048,"ArrowLeft","false",1,"Congruent",0.41515,"Congruent - Strong","Easy"
"S003","Ebbinghaus",-0.05,1.2,"Ebbinghaus_1.20000_-0.0500","B",15,381384,0.675,"ArrowLeft","false",1,"Incongruent",0.05,"Incongruent - Strong","Hard"
"S003","Ebbinghaus",-0.2687,0.9,"Ebbinghaus_0.90000_-0.2687","B",16,383022,1.549,"ArrowLeft","false",1,"Incongruent",0.2687,"Incongruent - Strong","Easy"
"S003","Ebbinghaus",0.2687,0.6,"Ebbinghaus_0.60000_0.26870","B",17,385618,0.562,"ArrowRight","false",1,"Incongruent",0.2687,"Incongruent - Mild","Easy"
"S003","Ebbinghaus",0.41515,0.3,"Ebbinghaus_0.30000_0.41515","B",18,387071,0.754,"ArrowLeft","true",0,"Incongruent",0.41515,"Incongruent - Mild","Easy"
"S003","Ebbinghaus",0.41515,-1.5,"Ebbinghaus_-1.5000_0.41515","B",19,388741,0.65,"ArrowLeft","true",0,"Congruent",0.41515,"Congruent - Strong","Easy"
"S003","Ebbinghaus",0.2687,-0.6,"Ebbinghaus_-0.6000_0.26870","B",20,390049,0.834,"ArrowLeft","true",0,"Congruent",0.2687,"Congruent - Mild","Easy"
"S003","Ebbinghaus",0.2687,1.5,"Ebbinghaus_1.50000_0.26870","B",21,391642,1.54,"ArrowRight","false",1,"Incongruent",0.2687,"Incongruent - Strong","Easy"
"S003","Ebbinghaus",-0.41515,1.2,"Ebbinghaus_1.20000_-0.41515","B",22,394026,0.625,"ArrowRight","true",0,"Incongruent",0.41515,"Incongruent - Strong","Easy"
"S003","Ebbinghaus",-0.41515,0.9,"Ebbinghaus_0.90000_-0.41515","B",23,395522,1.05,"ArrowRight","true",0,"Incongruent",0.41515,"Incongruent - Strong","Easy"
"S003","Ebbinghaus",-0.05,-0.6,"Ebbinghaus_-0.6000_-0.0500","B",24,397395,1.881,"ArrowLeft","false",1,"Congruent",0.05,"Congruent - Mild","Hard"
"S003","Ebbinghaus",-0.05,-1.5,"Ebbinghaus_-1.5000_-0.0500","B",25,400369,0.872,"ArrowLeft","false",1,"Congruent",0.05,"Congruent - Strong","Hard"
"S003","Ebbinghaus",0.2687,-0.9,"Ebbinghaus_-0.9000_0.26870","B",26,401976,2.241,"ArrowLeft","true",0,"Congruent",0.2687,"Congruent - Strong","Easy"
"S003","Ebbinghaus",0.14856,0.3,"Ebbinghaus_0.30000_0.14856","B",27,405055,0.885,"ArrowLeft","true",0,"Incongruent",0.14856,"Incongruent - Mild","Hard"
"S003","Ebbinghaus",-0.14856,1.2,"Ebbinghaus_1.20000_-0.14856","B",28,406687,0.637,"ArrowRight","true",0,"Incongruent",0.14856,"Incongruent - Strong","Hard"
"S003","Ebbinghaus",0.14856,1.2,"Ebbinghaus_1.20000_0.14856","B",29,407937,0.624,"ArrowRight","false",1,"Incongruent",0.14856,"Incongruent - Strong","Hard"
"S003","Ebbinghaus",0.2687,-1.5,"Ebbinghaus_-1.5000_0.26870","B",30,409411,0.761,"ArrowLeft","true",0,"Congruent",0.2687,"Congruent - Strong","Easy"
"S003","Ebbinghaus",-0.14856,-0.3,"Ebbinghaus_-0.3000_-0.14856","B",31,411035,0.774,"ArrowLeft","false",1,"Congruent",0.14856,"Congruent - Mild","Hard"
"S003","Ebbinghaus",-0.41515,-0.3,"Ebbinghaus_-0.3000_-0.41515","B",32,412491,2.026,"ArrowLeft","false",1,"Congruent",0.41515,"Congruent - Mild","Easy"
"S003","Ebbinghaus",-0.05,-0.9,"Ebbinghaus_-0.9000_-0.0500","B",33,415180,2.486,"ArrowLeft","false",1,"Congruent",0.05,"Congruent - Strong","Hard"
"S003","Ebbinghaus",-0.05,0.9,"Ebbinghaus_0.90000_-0.0500","B",34,418647,4.395,"ArrowRight","true",0,"Incongruent",0.05,"Incongruent - Strong","Hard"
"S003","Ebbinghaus",0.05,0.3,"Ebbinghaus_0.30000_0.05000","B",35,423700,1.299,"ArrowRight","false",1,"Incongruent",0.05,"Incongruent - Mild","Hard"
"S003","Ebbinghaus",0.05,1.2,"Ebbinghaus_1.20000_0.05000","B",36,425860,0.878,"ArrowLeft","true",0,"Incongruent",0.05,"Incongruent - Strong","Hard"
"S003","Ebbinghaus",-0.2687,-1.2,"Ebbinghaus_-1.2000_-0.2687","B",37,427561,0.703,"ArrowLeft","false",1,"Congruent",0.2687,"Congruent - Strong","Easy"
"S003","Ebbinghaus",0.05,-0.6,"Ebbinghaus_-0.6000_0.05000","B",38,428919,0.88,"ArrowRight","false",1,"Congruent",0.05,"Congruent - Mild","Hard"
"S003","Ebbinghaus",0.05,0.6,"Ebbinghaus_0.60000_0.05000","B",39,430678,0.453,"ArrowRight","false",1,"Incongruent",0.05,"Incongruent - Mild","Hard"
"S003","Ebbinghaus",0.05,-1.2,"Ebbinghaus_-1.2000_0.05000","B",40,431990,0.489,"ArrowRight","false",1,"Congruent",0.05,"Congruent - Strong","Hard"
"S003","Ebbinghaus",0.05,0.9,"Ebbinghaus_0.90000_0.05000","B",41,433120,0.724,"ArrowRight","false",1,"Incongruent",0.05,"Incongruent - Strong","Hard"
"S003","Ebbinghaus",0.14856,0.9,"Ebbinghaus_0.90000_0.14856","B",42,434856,0.563,"ArrowRight","false",1,"Incongruent",0.14856,"Incongruent - Strong","Hard"
"S003","Ebbinghaus",-0.05,0.3,"Ebbinghaus_0.30000_-0.0500","B",43,436146,0.559,"ArrowLeft","false",1,"Incongruent",0.05,"Incongruent - Mild","Hard"
"S003","Ebbinghaus",0.05,-0.3,"Ebbinghaus_-0.3000_0.05000","B",44,437667,0.364,"ArrowLeft","true",0,"Congruent",0.05,"Congruent - Mild","Hard"
"S003","Ebbinghaus",0.41515,-0.9,"Ebbinghaus_-0.9000_0.41515","B",45,438651,0.948,"ArrowLeft","true",0,"Congruent",0.41515,"Congruent - Strong","Easy"
"S003","Ebbinghaus",0.41515,0.6,"Ebbinghaus_0.60000_0.41515","B",46,440593,0.608,"ArrowLeft","true",0,"Incongruent",0.41515,"Incongruent - Mild","Easy"
"S003","Ebbinghaus",-0.41515,-0.6,"Ebbinghaus_-0.6000_-0.41515","B",47,441901,0.836,"ArrowLeft","false",1,"Congruent",0.41515,"Congruent - Mild","Easy"
"S003","Ebbinghaus",-0.41515,0.6,"Ebbinghaus_0.60000_-0.41515","B",48,443700,0.352,"ArrowLeft","false",1,"Incongruent",0.41515,"Incongruent - Mild","Easy"
"S003","Ebbinghaus",-0.05,-1.2,"Ebbinghaus_-1.2000_-0.0500","B",49,444964,0.92,"ArrowLeft","false",1,"Congruent",0.05,"Congruent - Strong","Hard"
"S003","Ebbinghaus",0.41515,1.2,"Ebbinghaus_1.20000_0.41515","B",50,446590,0.57,"ArrowRight","false",1,"Incongruent",0.41515,"Incongruent - Strong","Easy"
"S003","Ebbinghaus",0.05,1.5,"Ebbinghaus_1.50000_0.05000","B",51,448249,0.368,"ArrowLeft","true",0,"Incongruent",0.05,"Incongruent - Strong","Hard"
"S003","Ebbinghaus",-0.2687,-1.5,"Ebbinghaus_-1.5000_-0.2687","B",52,449245,0.773,"ArrowLeft","false",1,"Congruent",0.2687,"Congruent - Strong","Easy"
"S003","Ebbinghaus",0.2687,1.2,"Ebbinghaus_1.20000_0.26870","B",53,450990,0.165,"ArrowRight","false",1,"Incongruent",0.2687,"Incongruent - Strong","Easy"
"S003","Ebbinghaus",0.14856,-0.9,"Ebbinghaus_-0.9000_0.14856","B",54,451820,0.623,"ArrowRight","false",1,"Congruent",0.14856,"Congruent - Strong","Hard"
"S003","Ebbinghaus",-0.14856,0.6,"Ebbinghaus_0.60000_-0.14856","B",55,453502,0.211,"ArrowLeft","false",1,"Incongruent",0.14856,"Incongruent - Mild","Hard"
"S003","Ebbinghaus",0.05,-1.5,"Ebbinghaus_-1.5000_0.05000","B",56,454342,0.58,"ArrowLeft","true",0,"Congruent",0.05,"Congruent - Strong","Hard"
"S003","Ebbinghaus",0.2687,-1.2,"Ebbinghaus_-1.2000_0.26870","B",57,455536,0.646,"ArrowLeft","true",0,"Congruent",0.2687,"Congruent - Strong","Easy"
"S003","Ebbinghaus",-0.41515,-1.2,"Ebbinghaus_-1.2000_-0.41515","B",58,456867,0.824,"ArrowLeft","false",1,"Congruent",0.41515,"Congruent - Strong","Easy"
"S003","Ebbinghaus",0.2687,-0.3,"Ebbinghaus_-0.3000_0.26870","B",59,458530,0.243,"ArrowRight","false",1,"Congruent",0.2687,"Congruent - Mild","Easy"
"S003","Ebbinghaus",-0.2687,-0.6,"Ebbinghaus_-0.6000_-0.2687","B",60,459441,0.361,"ArrowRight","true",0,"Congruent",0.2687,"Congruent - Mild","Easy"
"S003","Ebbinghaus",-0.2687,0.6,"Ebbinghaus_0.60000_-0.2687","B",61,460514,0.455,"ArrowLeft","false",1,"Incongruent",0.2687,"Incongruent - Mild","Easy"
"S003","Ebbinghaus",-0.14856,-1.2,"Ebbinghaus_-1.2000_-0.14856","B",62,461648,0.663,"ArrowRight","true",0,"Congruent",0.14856,"Congruent - Strong","Hard"
"S003","Ebbinghaus",-0.14856,0.9,"Ebbinghaus_0.90000_-0.14856","B",63,462960,0.585,"ArrowRight","true",0,"Incongruent",0.14856,"Incongruent - Strong","Hard"
"S003","Ebbinghaus",-0.41515,1.5,"Ebbinghaus_1.50000_-0.41515","B",64,464521,0.503,"ArrowRight","true",0,"Incongruent",0.41515,"Incongruent - Strong","Easy"
"S003","Ebbinghaus",-0.2687,1.5,"Ebbinghaus_1.50000_-0.2687","B",65,466069,0.673,"ArrowRight","true",0,"Incongruent",0.2687,"Incongruent - Strong","Easy"
"S003","Ebbinghaus",0.41515,-1.2,"Ebbinghaus_-1.2000_0.41515","B",66,467744,0.291,"ArrowLeft","true",0,"Congruent",0.41515,"Congruent - Strong","Easy"
"S003","Ebbinghaus",-0.05,1.5,"Ebbinghaus_1.50000_-0.0500","B",67,468695,0.655,"ArrowLeft","false",1,"Incongruent",0.05,"Incongruent - Strong","Hard"
"S003","Ebbinghaus",0.14856,0.6,"Ebbinghaus_0.60000_0.14856","B",68,470038,0.723,"ArrowLeft","true",0,"Incongruent",0.14856,"Incongruent - Mild","Hard"
"S003","Ebbinghaus",0.14856,1.5,"Ebbinghaus_1.50000_0.14856","B",69,471701,0.486,"ArrowRight","false",1,"Incongruent",0.14856,"Incongruent - Strong","Hard"
"S003","Ebbinghaus",0.41515,-0.6,"Ebbinghaus_-0.6000_0.41515","B",70,473083,0.767,"ArrowRight","false",1,"Congruent",0.41515,"Congruent - Mild","Easy"
"S003","Ebbinghaus",-0.41515,0.3,"Ebbinghaus_0.30000_-0.41515","B",71,474662,0.328,"ArrowRight","true",0,"Incongruent",0.41515,"Incongruent - Mild","Easy"
"S003","Ebbinghaus",-0.2687,-0.9,"Ebbinghaus_-0.9000_-0.2687","B",72,476029,0.73,"ArrowLeft","false",1,"Congruent",0.2687,"Congruent - Strong","Easy"
"S003","Ebbinghaus",-0.14856,-0.9,"Ebbinghaus_-0.9000_-0.14856","B",73,477584,0.633,"ArrowLeft","false",1,"Congruent",0.14856,"Congruent - Strong","Hard"
"S003","Ebbinghaus",-0.14856,-1.5,"Ebbinghaus_-1.5000_-0.14856","B",74,479134,0.433,"ArrowLeft","false",1,"Congruent",0.14856,"Congruent - Strong","Hard"
"S003","Ebbinghaus",0.41515,1.5,"Ebbinghaus_1.50000_0.41515","B",75,480243,0.33,"ArrowLeft","true",0,"Incongruent",0.41515,"Incongruent - Strong","Easy"
"S003","Ebbinghaus",0.05,-0.9,"Ebbinghaus_-0.9000_0.05000","B",76,481312,0.328,"ArrowRight","false",1,"Congruent",0.05,"Congruent - Strong","Hard"
"S003","Ebbinghaus",0.14856,-0.6,"Ebbinghaus_-0.6000_0.14856","B",77,482729,0.228,"ArrowRight","false",1,"Congruent",0.14856,"Congruent - Mild","Hard"
"S003","Ebbinghaus",-0.05,-0.3,"Ebbinghaus_-0.3000_-0.0500","B",78,483648,0.415,"ArrowRight","true",0,"Congruent",0.05,"Congruent - Mild","Hard"
"S003","Ebbinghaus",0.14856,-1.2,"Ebbinghaus_-1.2000_0.14856","B",79,484990,0.503,"ArrowLeft","true",0,"Congruent",0.14856,"Congruent - Strong","Hard"
"S003","Ebbinghaus",0.14856,-1.5,"Ebbinghaus_-1.5000_0.14856","B",80,486390,0.248,"ArrowRight","false",1,"Congruent",0.14856,"Congruent - Strong","Hard"
"S003","VerticalHorizontal",-0.08913,9,"VerticalHorizontal_9.00000_-0.08913","B",1,491262,0.71,"ArrowRight","true",0,"Incongruent",0.08913,"Incongruent - Mild","Hard"
"S003","VerticalHorizontal",-0.03,-27,"VerticalHorizontal_-27.000_-0.0300","B",2,492635,0.748,"ArrowLeft","false",1,"Congruent",0.03,"Congruent - Strong","Hard"
"S003","VerticalHorizontal",-0.03,-9,"VerticalHorizontal_-9.0000_-0.0300","B",3,494384,0.453,"ArrowLeft","false",1,"Congruent",0.03,"Congruent - Mild","Hard"
"S003","VerticalHorizontal",-0.08913,45,"VerticalHorizontal_45.0000_-0.08913","B",4,495802,0.739,"ArrowLeft","false",1,"Incongruent",0.08913,"Incongruent - Strong","Hard"
"S003","VerticalHorizontal",-0.08913,-27,"VerticalHorizontal_-27.000_-0.08913","B",5,497313,0.487,"ArrowRight","true",0,"Congruent",0.08913,"Congruent - Strong","Hard"
"S003","VerticalHorizontal",-0.03,45,"VerticalHorizontal_45.0000_-0.0300","B",6,498761,0.218,"ArrowRight","true",0,"Incongruent",0.03,"Incongruent - Strong","Hard"
