"Participant","Illusion_Type","Illusion_Difference","Illusion_Strength","File","Block","Trial","ISI","RT","Response","Response_Correct","Error"
"S001","MullerLyer",0.24183,12,"stimuli/MullerLyer_12.0000_0.24183.png","B",1,5121481,0.729,"ArrowUp","true",0
"S001","MullerLyer",0.1337,-12,"","B",2,5122870,NA,"","false",1
"S001","MullerLyer",-0.1337,12,"stimuli/MullerLyer_12.0000_-0.1337.png","B",3,5123849,0.491,"ArrowUp","false",1
"S001","MullerLyer",0.24183,-6,"stimuli/MullerLyer_-6.0000_0.24183.png","B",4,5125341,0.533,"ArrowUp","true",0
"S001","MullerLyer",-0.24183,12,"stimuli/MullerLyer_12.0000_-0.24183.png","B",5,5126514,0.573,"ArrowDown","true",0
"S001","MullerLyer",0.045,6,"stimuli/MullerLyer_6.00000_0.04500.png","B",6,5128117,0.518,"ArrowDown","false",1
"S001","MullerLyer",-0.1337,-12,"stimuli/MullerLyer_-12.000_-0.1337.png","B",7,5129347,0.659,"ArrowDown","true",0
"S001","MullerLyer",0.37364,-30,"stimuli/MullerLyer_-30.000_0.37364.png","B",8,5130909,0.447,"ArrowUp","true",0
"S001","MullerLyer",-0.24183,-30,"stimuli/MullerLyer_-30.000_-0.24183.png","B",9,5132197,0.437,"ArrowDown","true",0
"S001","MullerLyer",-0.37364,-6,"stimuli/MullerLyer_-6.0000_-0.37364.png","B",10,5133564,0.352,"ArrowDown","true",0
"S001","MullerLyer",-0.045,24,"stimuli/MullerLyer_24.0000_-0.0450.png","B",11,5134835,0.529,"ArrowUp","false",1
"S001","MullerLyer",-0.045,6,"stimuli/MullerLyer_6.00000_-0.0450.png","B",12,5136459,0.508,"ArrowDown","true",0
"S001","MullerLyer",-0.37364,-18,"stimuli/MullerLyer_-18.000_-0.37364.png","B",13,5137934,0.475,"ArrowDown","true",0
"S001","MullerLyer",0.24183,18,"stimuli/MullerLyer_18.0000_0.24183.png","B",14,5139085,0.603,"ArrowDown","false",1
"S001","MullerLyer",0.37364,-24,"stimuli/MullerLyer_-24.000_0.37364.png","B",15,5140325,0.482,"ArrowUp","true",0
"S001","MullerLyer",0.24183,30,"stimuli/MullerLyer_30.0000_0.24183.png","B",16,5141857,0.55,"ArrowDown","false",1
"S001","MullerLyer",-0.1337,6,"stimuli/MullerLyer_6.00000_-0.1337.png","B",17,5142651,0.856,"ArrowDown","true",0
"S001","MullerLyer",-0.37364,24,"stimuli/MullerLyer_24.0000_-0.37364.png","B",18,5144500,0.292,"ArrowDown","true",0
"S001","MullerLyer",0.045,12,"stimuli/MullerLyer_12.0000_0.04500.png","B",19,5145664,0.277,"ArrowUp","true",0
"S001","MullerLyer",0.045,30,"stimuli/MullerLyer_30.0000_0.04500.png","B",20,5146742,0.541,"ArrowDown","false",1
"S001","MullerLyer",-0.1337,18,"stimuli/MullerLyer_18.0000_-0.1337.png","B",21,5148159,0.709,"ArrowUp","false",1
"S001","MullerLyer",0.1337,6,"stimuli/MullerLyer_6.00000_0.13370.png","B",22,5149658,0.722,"ArrowUp","true",0
"S001","MullerLyer",-0.37364,30,"stimuli/MullerLyer_30.0000_-0.37364.png","B",23,5150992,0.688,"ArrowUp","false",1
"S001","MullerLyer",0.1337,30,"stimuli/MullerLyer_30.0000_0.13370.png","B",24,5152358,0.282,"ArrowDown","false",1
"S001","MullerLyer",0.37364,18,"stimuli/MullerLyer_18.0000_0.37364.png","B",25,5153628,0.714,"ArrowDown","false",1
"S001","MullerLyer",-0.37364,-24,"stimuli/MullerLyer_-24.000_-0.37364.png","B",26,5155325,0.305,"ArrowUp","false",1
"S001","MullerLyer",-0.1337,24,"stimuli/MullerLyer_24.0000_-0.1337.png","B",27,5156667,0.39,"ArrowDown","true",0
"S001","MullerLyer",0.24183,-24,"stimuli/MullerLyer_-24.000_0.24183.png","B",28,5158125,0.562,"ArrowUp","true",0
"S001","MullerLyer",-0.1337,-24,"stimuli/MullerLyer_-24.000_-0.1337.png","B",29,5159690,0.36,"ArrowUp","false",1
"S001","MullerLyer",-0.37364,6,"stimuli/MullerLyer_6.00000_-0.37364.png","B",30,5160898,0.443,"ArrowDown","true",0
"S001","MullerLyer",0.1337,24,"stimuli/MullerLyer_24.0000_0.13370.png","B",31,5162301,0.315,"ArrowUp","true",0
"S001","MullerLyer",0.24183,-12,"stimuli/MullerLyer_-12.000_0.24183.png","B",32,5163618,0.622,"ArrowUp","true",0
"S001","MullerLyer",0.37364,6,"stimuli/MullerLyer_6.00000_0.37364.png","B",33,5164973,0.387,"ArrowDown","false",1
"S001","MullerLyer",-0.1337,-6,"stimuli/MullerLyer_-6.0000_-0.1337.png","B",34,5166438,0.353,"ArrowUp","false",1
"S001","MullerLyer",0.24183,-30,"stimuli/MullerLyer_-30.000_0.24183.png","B",35,5167773,0.299,"ArrowDown","false",1
"S001","MullerLyer",-0.045,12,"stimuli/MullerLyer_12.0000_-0.0450.png","B",36,5168725,0.439,"ArrowDown","true",0
"S001","MullerLyer",0.045,18,"stimuli/MullerLyer_18.0000_0.04500.png","B",37,5170267,0.277,"ArrowUp","true",0
"S001","MullerLyer",0.37364,30,"stimuli/MullerLyer_30.0000_0.37364.png","B",38,5171247,0.495,"ArrowDown","false",1
"S001","MullerLyer",-0.045,-12,"stimuli/MullerLyer_-12.000_-0.0450.png","B",39,5172433,0.574,"ArrowDown","true",0
"S001","MullerLyer",0.1337,-24,"stimuli/MullerLyer_-24.000_0.13370.png","B",40,5174111,0.269,"ArrowUp","true",0
"S001","MullerLyer",0.37364,-12,"stimuli/MullerLyer_-12.000_0.37364.png","B",41,5175381,0.283,"ArrowDown","false",1
"S001","MullerLyer",-0.045,-18,"stimuli/MullerLyer_-18.000_-0.0450.png","B",42,5176699,0.23,"ArrowDown","true",0
"S001","MullerLyer",-0.045,18,"stimuli/MullerLyer_18.0000_-0.0450.png","B",43,5177655,0.859,"ArrowUp","false",1
"S001","MullerLyer",0.37364,24,"stimuli/MullerLyer_24.0000_0.37364.png","B",44,5179561,0.198,"ArrowDown","false",1
"S001","MullerLyer",0.37364,-6,"stimuli/MullerLyer_-6.0000_0.37364.png","B",45,5180563,0.243,"ArrowDown","false",1
"S001","MullerLyer",0.1337,18,"stimuli/MullerLyer_18.0000_0.13370.png","B",46,5181905,0.243,"ArrowUp","true",0
"S001","MullerLyer",-0.24183,30,"stimuli/MullerLyer_30.0000_-0.24183.png","B",47,5183124,0.275,"ArrowDown","true",0
"S001","MullerLyer",0.37364,12,"stimuli/MullerLyer_12.0000_0.37364.png","B",48,5184432,0.286,"ArrowDown","false",1
"S001","MullerLyer",-0.045,-6,"stimuli/MullerLyer_-6.0000_-0.0450.png","B",49,5185389,0.347,"ArrowDown","true",0
"S001","MullerLyer",-0.045,-24,"stimuli/MullerLyer_-24.000_-0.0450.png","B",50,5186466,0.535,"ArrowUp","false",1
"S001","MullerLyer",0.045,-18,"stimuli/MullerLyer_-18.000_0.04500.png","B",51,5187691,0.446,"ArrowUp","true",0
"S001","MullerLyer",-0.1337,-18,"stimuli/MullerLyer_-18.000_-0.1337.png","B",52,5188767,0.368,"ArrowDown","true",0
"S001","MullerLyer",-0.24183,18,"stimuli/MullerLyer_18.0000_-0.24183.png","B",53,5190198,0.215,"ArrowDown","true",0
"S001","MullerLyer",-0.24183,24,"stimuli/MullerLyer_24.0000_-0.24183.png","B",54,5191256,0.267,"ArrowDown","true",0
"S001","MullerLyer",0.045,-24,"stimuli/MullerLyer_-24.000_0.04500.png","B",55,5192391,0.259,"ArrowUp","true",0
"S001","MullerLyer",0.24183,-18,"stimuli/MullerLyer_-18.000_0.24183.png","B",56,5193525,0.223,"ArrowUp","true",0
"S001","MullerLyer",-0.37364,18,"stimuli/MullerLyer_18.0000_-0.37364.png","B",57,5194446,0.288,"ArrowDown","true",0
"S001","MullerLyer",-0.24183,-12,"stimuli/MullerLyer_-12.000_-0.24183.png","B",58,5195579,0.31,"ArrowDown","true",0
"S001","MullerLyer",-0.24183,-24,"stimuli/MullerLyer_-24.000_-0.24183.png","B",59,5196740,0.241,"ArrowDown","true",0
"S001","MullerLyer",-0.1337,30,"stimuli/MullerLyer_30.0000_-0.1337.png","B",60,5197687,0.328,"ArrowUp","false",1
"S001","MullerLyer",0.1337,12,"stimuli/MullerLyer_12.0000_0.13370.png","B",61,5198696,0.532,"ArrowDown","false",1
"S001","MullerLyer",0.37364,-18,"stimuli/MullerLyer_-18.000_0.37364.png","B",62,5200185,0.195,"ArrowDown","false",1
"S001","MullerLyer",-0.24183,-6,"stimuli/MullerLyer_-6.0000_-0.24183.png","B",63,5201098,0.25,"ArrowDown","true",0
"S001","MullerLyer",-0.045,-30,"stimuli/MullerLyer_-30.000_-0.0450.png","B",64,5202215,0.345,"ArrowUp","false",1
"S001","MullerLyer",-0.37364,12,"stimuli/MullerLyer_12.0000_-0.37364.png","B",65,5203557,0.162,"ArrowUp","false",1
"S001","MullerLyer",0.045,24,"stimuli/MullerLyer_24.0000_0.04500.png","B",66,5204650,0.253,"ArrowDown","false",1
"S001","MullerLyer",0.24183,6,"stimuli/MullerLyer_6.00000_0.24183.png","B",67,5205642,0.403,"ArrowDown","false",1
"S001","MullerLyer",-0.045,30,"stimuli/MullerLyer_30.0000_-0.0450.png","B",68,5207017,0.267,"ArrowDown","true",0
"S001","MullerLyer",0.1337,-18,"stimuli/MullerLyer_-18.000_0.13370.png","B",69,5208148,0.62,"ArrowUp","true",0
"S001","MullerLyer",0.045,-6,"stimuli/MullerLyer_-6.0000_0.04500.png","B",70,5209842,0.175,"ArrowDown","false",1
"S001","MullerLyer",-0.24183,-18,"stimuli/MullerLyer_-18.000_-0.24183.png","B",71,5210738,0.386,"ArrowDown","true",0
"S001","MullerLyer",-0.37364,-30,"stimuli/MullerLyer_-30.000_-0.37364.png","B",72,5212090,0.257,"ArrowDown","true",0
"S001","MullerLyer",0.24183,24,"stimuli/MullerLyer_24.0000_0.24183.png","B",73,5213098,0.259,"ArrowDown","false",1
"S001","MullerLyer",0.045,-12,"stimuli/MullerLyer_-12.000_0.04500.png","B",74,5214025,0.26,"ArrowUp","true",0
"S001","MullerLyer",-0.24183,6,"stimuli/MullerLyer_6.00000_-0.24183.png","B",75,5215269,0.422,"ArrowUp","false",1
"S001","MullerLyer",0.1337,-6,"stimuli/MullerLyer_-6.0000_0.13370.png","B",76,5216324,0.563,"ArrowUp","true",0
"S001","MullerLyer",0.1337,-30,"stimuli/MullerLyer_-30.000_0.13370.png","B",77,5217755,0.358,"ArrowDown","false",1
"S001","MullerLyer",0.045,-30,"stimuli/MullerLyer_-30.000_0.04500.png","B",78,5218814,0.525,"ArrowDown","false",1
"S001","MullerLyer",-0.37364,-12,"stimuli/MullerLyer_-12.000_-0.37364.png","B",79,5220241,0.274,"ArrowUp","false",1
"S001","MullerLyer",-0.1337,-30,"stimuli/MullerLyer_-30.000_-0.1337.png","B",80,5221569,0.214,"ArrowDown","true",0
"S001","Ebbinghaus",0.05,-0.6,"stimuli/Ebbinghaus_-0.6000_0.05000.png","B",1,5226216,0.559,"ArrowRight","false",1
"S001","Ebbinghaus",0.05,-0.9,"stimuli/Ebbinghaus_-0.9000_0.05000.png","B",2,5227789,0.533,"ArrowLeft","true",0
"S001","Ebbinghaus",0.41515,-0.6,"stimuli/Ebbinghaus_-0.6000_0.41515.png","B",3,5229366,0.52,"ArrowRight","false",1
"S001","Ebbinghaus",0.2687,1.2,"stimuli/Ebbinghaus_1.20000_0.26870.png","B",4,5230819,0.727,"ArrowRight","false",1
"S001","Ebbinghaus",-0.41515,-0.3,"stimuli/Ebbinghaus_-0.3000_-0.41515.png","B",5,5232567,0.502,"ArrowRight","true",0
"S001","Ebbinghaus",-0.14856,1.2,"stimuli/Ebbinghaus_1.20000_-0.14856.png","B",6,5234096,0.5,"ArrowRight","true",0
"S001","Ebbinghaus",0.05,1.5,"stimuli/Ebbinghaus_1.50000_0.05000.png","B",7,5235224,0.527,"ArrowLeft","true",0
"S001","Ebbinghaus",-0.41515,1.5,"stimuli/Ebbinghaus_1.50000_-0.41515.png","B",8,5236683,0.228,"ArrowLeft","false",1
"S001","Ebbinghaus",-0.2687,1.5,"stimuli/Ebbinghaus_1.50000_-0.2687.png","B",9,5237775,0.267,"ArrowRight","true",0
"S001","Ebbinghaus",-0.05,1.5,"stimuli/Ebbinghaus_1.50000_-0.0500.png","B",10,5239130,0.214,"ArrowLeft","false",1
"S001","Ebbinghaus",0.14856,0.9,"stimuli/Ebbinghaus_0.90000_0.14856.png","B",11,5240275,0.216,"ArrowRight","false",1
"S001","Ebbinghaus",-0.14856,-1.5,"stimuli/Ebbinghaus_-1.5000_-0.14856.png","B",12,5241232,0.383,"ArrowRight","true",0
"S001","Ebbinghaus",-0.2687,-0.3,"stimuli/Ebbinghaus_-0.3000_-0.2687.png","B",13,5242413,0.299,"ArrowLeft","false",1
"S001","Ebbinghaus",-0.14856,-0.9,"stimuli/Ebbinghaus_-0.9000_-0.14856.png","B",14,5243800,0.069,"ArrowLeft","false",1
"S001","Ebbinghaus",0.41515,0.6,"stimuli/Ebbinghaus_0.60000_0.41515.png","B",15,5244809,0.213,"ArrowRight","false",1
"S001","Ebbinghaus",-0.14856,-0.3,"stimuli/Ebbinghaus_-0.3000_-0.14856.png","B",16,5246052,0.152,"ArrowLeft","false",1
"S001","Ebbinghaus",-0.05,0.3,"stimuli/Ebbinghaus_0.30000_-0.0500.png","B",17,5247083,0.207,"ArrowLeft","false",1
"S001","Ebbinghaus",-0.05,-1.5,"stimuli/Ebbinghaus_-1.5000_-0.0500.png","B",18,5248249,0.239,"ArrowRight","true",0
"S001","Ebbinghaus",-0.41515,0.3,"stimuli/Ebbinghaus_0.30000_-0.41515.png","B",19,5249351,0.228,"ArrowLeft","false",1
"S001","Ebbinghaus",0.05,-1.5,"stimuli/Ebbinghaus_-1.5000_0.05000.png","B",20,5250348,0.264,"ArrowLeft","true",0
"S001","Ebbinghaus",0.41515,0.3,"stimuli/Ebbinghaus_0.30000_0.41515.png","B",21,5251242,0.37,"ArrowLeft","true",0
"S001","Ebbinghaus",0.41515,1.5,"stimuli/Ebbinghaus_1.50000_0.41515.png","B",22,5252243,0.429,"ArrowRight","false",1
"S001","Ebbinghaus",0.41515,-0.9,"stimuli/Ebbinghaus_-0.9000_0.41515.png","B",23,5253499,0.234,"ArrowLeft","true",0
"S001","Ebbinghaus",0.14856,1.5,"stimuli/Ebbinghaus_1.50000_0.14856.png","B",24,5254432,0.272,"ArrowLeft","true",0
"S001","Ebbinghaus",-0.14856,0.3,"stimuli/Ebbinghaus_0.30000_-0.14856.png","B",25,5255711,0.194,"ArrowRight","true",0
"S001","Ebbinghaus",-0.14856,-0.6,"stimuli/Ebbinghaus_-0.6000_-0.14856.png","B",26,5256879,0.253,"ArrowRight","true",0
"S001","Ebbinghaus",0.2687,-0.3,"stimuli/Ebbinghaus_-0.3000_0.26870.png","B",27,5257799,0.337,"ArrowLeft","true",0
"S001","Ebbinghaus",-0.05,-0.9,"stimuli/Ebbinghaus_-0.9000_-0.0500.png","B",28,5258804,0.28,"ArrowLeft","false",1
"S001","Ebbinghaus",0.14856,0.3,"stimuli/Ebbinghaus_0.30000_0.14856.png","B",29,5259908,0.169,"ArrowRight","false",1
"S001","Ebbinghaus",-0.2687,-1.5,"stimuli/Ebbinghaus_-1.5000_-0.2687.png","B",30,5260792,0.384,"ArrowRight","true",0
"S001","Ebbinghaus",0.05,1.2,"stimuli/Ebbinghaus_1.20000_0.05000.png","B",31,5262216,0.085,"ArrowLeft","true",0
"S001","Ebbinghaus",-0.41515,-0.6,"stimuli/Ebbinghaus_-0.6000_-0.41515.png","B",32,5262966,0.311,"ArrowRight","true",0
"S001","Ebbinghaus",0.2687,-1.2,"stimuli/Ebbinghaus_-1.2000_0.26870.png","B",33,5264023,0.237,"ArrowRight","false",1
"S001","Ebbinghaus",-0.2687,1.2,"stimuli/Ebbinghaus_1.20000_-0.2687.png","B",34,5265249,0.304,"ArrowLeft","false",1
"S001","Ebbinghaus",0.2687,-0.6,"stimuli/Ebbinghaus_-0.6000_0.26870.png","B",35,5266205,0.283,"ArrowLeft","true",0
"S001","Ebbinghaus",-0.14856,0.9,"stimuli/Ebbinghaus_0.90000_-0.14856.png","B",36,5267233,0.263,"ArrowRight","true",0
"S001","Ebbinghaus",0.05,0.3,"stimuli/Ebbinghaus_0.30000_0.05000.png","B",37,5268299,0.289,"ArrowLeft","true",0
"S001","Ebbinghaus",0.2687,-1.5,"stimuli/Ebbinghaus_-1.5000_0.26870.png","B",38,5269590,0.239,"ArrowLeft","true",0
"S001","Ebbinghaus",-0.05,-0.6,"stimuli/Ebbinghaus_-0.6000_-0.0500.png","B",39,5270466,0.235,"ArrowRight","true",0
"S001","Ebbinghaus",-0.14856,1.5,"stimuli/Ebbinghaus_1.50000_-0.14856.png","B",40,5271640,0.175,"ArrowLeft","false",1
"S001","Ebbinghaus",-0.14856,0.6,"stimuli/Ebbinghaus_0.60000_-0.14856.png","B",41,5272768,0.148,"ArrowLeft","false",1
"S001","Ebbinghaus",-0.2687,-0.6,"stimuli/Ebbinghaus_-0.6000_-0.2687.png","B",42,5273632,0.198,"ArrowLeft","false",1
"S001","Ebbinghaus",0.41515,-1.2,"stimuli/Ebbinghaus_-1.2000_0.41515.png","B",43,5274657,0.399,"ArrowRight","false",1
"S001","Ebbinghaus",0.05,-1.2,"stimuli/Ebbinghaus_-1.2000_0.05000.png","B",44,5275740,0.334,"ArrowLeft","true",0
"S001","Ebbinghaus",-0.41515,-1.2,"stimuli/Ebbinghaus_-1.2000_-0.41515.png","B",45,5277132,0.016,"ArrowLeft","false",1
"S001","Ebbinghaus",0.14856,-0.3,"stimuli/Ebbinghaus_-0.3000_0.14856.png","B",46,5278225,0.245,"ArrowRight","false",1
"S001","Ebbinghaus",-0.2687,-1.2,"stimuli/Ebbinghaus_-1.2000_-0.2687.png","B",47,5279495,0.218,"ArrowLeft","false",1
"S001","Ebbinghaus",-0.2687,0.9,"stimuli/Ebbinghaus_0.90000_-0.2687.png","B",48,5280421,0.294,"ArrowRight","true",0
"S001","Ebbinghaus",-0.41515,0.6,"stimuli/Ebbinghaus_0.60000_-0.41515.png","B",49,5281613,0.212,"ArrowRight","true",0
"S001","Ebbinghaus",-0.05,1.2,"stimuli/Ebbinghaus_1.20000_-0.0500.png","B",50,5282773,0.268,"ArrowRight","true",0
"S001","Ebbinghaus",0.41515,0.9,"stimuli/Ebbinghaus_0.90000_0.41515.png","B",51,5284019,0.015,"ArrowLeft","true",0
"S001","Ebbinghaus",-0.05,-0.3,"stimuli/Ebbinghaus_-0.3000_-0.0500.png","B",52,5284923,0.253,"ArrowLeft","false",1
"S001","Ebbinghaus",0.14856,-1.2,"stimuli/Ebbinghaus_-1.2000_0.14856.png","B",53,5286073,0.114,"ArrowLeft","true",0
"S001","Ebbinghaus",-0.41515,1.2,"stimuli/Ebbinghaus_1.20000_-0.41515.png","B",54,5287027,0.214,"ArrowRight","true",0
"S001","Ebbinghaus",0.05,0.6,"stimuli/Ebbinghaus_0.60000_0.05000.png","B",55,5288228,0.154,"ArrowLeft","true",0
"S001","Ebbinghaus",0.2687,1.5,"stimuli/Ebbinghaus_1.50000_0.26870.png","B",56,5289000,0.309,"ArrowLeft","true",0
"S001","Ebbinghaus",0.2687,0.6,"stimuli/Ebbinghaus_0.60000_0.26870.png","B",57,5289931,0.297,"ArrowLeft","true",0
"S001","Ebbinghaus",0.14856,-0.6,"stimuli/Ebbinghaus_-0.6000_0.14856.png","B",58,5291244,0.011,"ArrowRight","false",1
"S001","Ebbinghaus",-0.2687,0.3,"stimuli/Ebbinghaus_0.30000_-0.2687.png","B",59,5292180,0.246,"ArrowRight","true",0
"S001","Ebbinghaus",0.05,0.9,"stimuli/Ebbinghaus_0.90000_0.05000.png","B",60,5293371,0.277,"ArrowRight","false",1
"S001","Ebbinghaus",0.2687,0.9,"stimuli/Ebbinghaus_0.90000_0.26870.png","B",61,5294606,0.145,"ArrowRight","false",1
"S001","Ebbinghaus",-0.05,0.6,"stimuli/Ebbinghaus_0.60000_-0.0500.png","B",62,5295756,0.508,"ArrowLeft","false",1
"S001","Ebbinghaus",0.2687,0.3,"stimuli/Ebbinghaus_0.30000_0.26870.png","B",63,5296874,0.6,"ArrowRight","false",1
"S001","Ebbinghaus",-0.2687,0.6,"stimuli/Ebbinghaus_0.60000_-0.2687.png","B",64,5298465,0.268,"ArrowLeft","false",1
"S001","Ebbinghaus",-0.05,-1.2,"stimuli/Ebbinghaus_-1.2000_-0.0500.png","B",65,5299831,0.26,"ArrowLeft","false",1
"S001","Ebbinghaus",0.05,-0.3,"stimuli/Ebbinghaus_-0.3000_0.05000.png","B",66,5300922,0.29,"ArrowLeft","true",0
"S001","Ebbinghaus",-0.41515,-1.5,"stimuli/Ebbinghaus_-1.5000_-0.41515.png","B",67,5301856,0.319,"ArrowRight","true",0
"S001","Ebbinghaus",0.41515,1.2,"stimuli/Ebbinghaus_1.20000_0.41515.png","B",68,5303263,0.22,"ArrowRight","false",1
"S001","Ebbinghaus",0.14856,1.2,"stimuli/Ebbinghaus_1.20000_0.14856.png","B",69,5304208,0.313,"ArrowLeft","true",0
"S001","Ebbinghaus",-0.41515,0.9,"stimuli/Ebbinghaus_0.90000_-0.41515.png","B",70,5305618,0.267,"ArrowRight","true",0
"S001","Ebbinghaus",0.14856,-1.5,"stimuli/Ebbinghaus_-1.5000_0.14856.png","B",71,5306783,0.228,"ArrowRight","false",1
"S001","Ebbinghaus",-0.2687,-0.9,"stimuli/Ebbinghaus_-0.9000_-0.2687.png","B",72,5307713,0.484,"ArrowRight","true",0
"S001","Ebbinghaus",-0.41515,-0.9,"stimuli/Ebbinghaus_-0.9000_-0.41515.png","B",73,5309015,0.292,"ArrowLeft","false",1
"S001","Ebbinghaus",0.41515,-1.5,"stimuli/Ebbinghaus_-1.5000_0.41515.png","B",74,5310233,0.214,"ArrowLeft","true",0
"S001","Ebbinghaus",-0.14856,-1.2,"stimuli/Ebbinghaus_-1.2000_-0.14856.png","B",75,5311076,0.328,"ArrowRight","true",0
"S001","Ebbinghaus",0.14856,0.6,"stimuli/Ebbinghaus_0.60000_0.14856.png","B",76,5312423,0.248,"ArrowLeft","true",0
"S001","Ebbinghaus",0.14856,-0.9,"stimuli/Ebbinghaus_-0.9000_0.14856.png","B",77,5313480,0.253,"ArrowLeft","true",0
"S001","Ebbinghaus",-0.05,0.9,"stimuli/Ebbinghaus_0.90000_-0.0500.png","B",78,5314596,0.386,"ArrowLeft","false",1
"S001","Ebbinghaus",0.41515,-0.3,"stimuli/Ebbinghaus_-0.3000_0.41515.png","B",79,5315807,0.745,"ArrowRight","false",1
"S001","Ebbinghaus",0.2687,-0.9,"stimuli/Ebbinghaus_-0.9000_0.26870.png","B",80,5317323,0.262,"ArrowRight","false",1
"S001","VerticalHorizontal",0.03,36,"stimuli/VerticalHorizontal_36.0000_0.03000.png","B",1,5321359,0.884,"ArrowRight","false",1
"S001","VerticalHorizontal",0.16122,-9,"stimuli/VerticalHorizontal_-9.0000_0.16122.png","B",2,5323006,0.293,"ArrowLeft","true",0
"S001","VerticalHorizontal",0.08913,-45,"stimuli/VerticalHorizontal_-45.000_0.08913.png","B",3,5324314,0.159,"ArrowRight","false",1
"S001","VerticalHorizontal",0.24909,-36,"stimuli/VerticalHorizontal_-36.000_0.24909.png","B",4,5325183,0.758,"ArrowRight","false",1
"S001","VerticalHorizontal",-0.16122,18,"stimuli/VerticalHorizontal_18.0000_-0.16122.png","B",5,5326911,0.301,"ArrowRight","true",0
"S001","VerticalHorizontal",0.03,45,"stimuli/VerticalHorizontal_45.0000_0.03000.png","B",6,5327863,0.35,"ArrowLeft","true",0
"S001","VerticalHorizontal",-0.16122,-36,"stimuli/VerticalHorizontal_-36.000_-0.16122.png","B",7,5328954,0.698,"ArrowRight","true",0
"S001","VerticalHorizontal",-0.08913,9,"stimuli/VerticalHorizontal_9.00000_-0.08913.png","B",8,5330613,0.204,"ArrowRight","true",0
"S001","VerticalHorizontal",0.16122,-27,"stimuli/VerticalHorizontal_-27.000_0.16122.png","B",9,5331758,1.383,"ArrowLeft","true",0
"S001","VerticalHorizontal",-0.24909,9,"stimuli/VerticalHorizontal_9.00000_-0.24909.png","B",10,5333871,0.757,"ArrowRight","true",0
"S001","VerticalHorizontal",-0.08913,-18,"stimuli/VerticalHorizontal_-18.000_-0.08913.png","B",11,5335416,0.575,"ArrowLeft","false",1
"S001","VerticalHorizontal",-0.24909,-18,"stimuli/VerticalHorizontal_-18.000_-0.24909.png","B",12,5336973,0.081,"ArrowLeft","false",1
"S001","VerticalHorizontal",0.03,27,"stimuli/VerticalHorizontal_27.0000_0.03000.png","B",13,5337750,0.771,"ArrowLeft","true",0
"S001","VerticalHorizontal",0.24909,36,"stimuli/VerticalHorizontal_36.0000_0.24909.png","B",14,5339456,0.797,"ArrowRight","false",1
"S001","VerticalHorizontal",-0.08913,-27,"stimuli/VerticalHorizontal_-27.000_-0.08913.png","B",15,5341055,0.816,"ArrowRight","true",0
"S001","VerticalHorizontal",-0.24909,-9,"stimuli/VerticalHorizontal_-9.0000_-0.24909.png","B",16,5342753,0.302,"ArrowLeft","false",1
"S001","VerticalHorizontal",-0.16122,-9,"stimuli/VerticalHorizontal_-9.0000_-0.16122.png","B",17,5343889,20.154,"ArrowLeft","false",1
"S001","VerticalHorizontal",0.24909,9,"stimuli/VerticalHorizontal_9.00000_0.24909.png","B",18,5364838,0.395,"ArrowRight","false",1
"S001","VerticalHorizontal",-0.08913,27,"stimuli/VerticalHorizontal_27.0000_-0.08913.png","B",19,5366296,0.876,"ArrowRight","true",0
"S001","VerticalHorizontal",-0.16122,-45,"stimuli/VerticalHorizontal_-45.000_-0.16122.png","B",20,5367823,0.645,"ArrowRight","true",0
"S001","VerticalHorizontal",0.16122,-36,"stimuli/VerticalHorizontal_-36.000_0.16122.png","B",21,5369230,1.175,"ArrowRight","false",1
"S001","VerticalHorizontal",-0.16122,45,"stimuli/VerticalHorizontal_45.0000_-0.16122.png","B",22,5371424,1.125,"ArrowRight","true",0
"S001","VerticalHorizontal",-0.03,-18,"stimuli/VerticalHorizontal_-18.000_-0.0300.png","B",23,5373247,2.543,"ArrowRight","true",0
"S001","VerticalHorizontal",-0.03,36,"stimuli/VerticalHorizontal_36.0000_-0.0300.png","B",24,5376779,0.429,"ArrowRight","true",0
"S001","VerticalHorizontal",0.08913,-36,"stimuli/VerticalHorizontal_-36.000_0.08913.png","B",25,5378303,0.359,"ArrowLeft","true",0
"S001","VerticalHorizontal",-0.08913,45,"stimuli/VerticalHorizontal_45.0000_-0.08913.png","B",26,5379648,0.153,"ArrowRight","true",0
"S001","VerticalHorizontal",0.08913,-27,"stimuli/VerticalHorizontal_-27.000_0.08913.png","B",27,5380481,0.24,"ArrowRight","false",1
"S001","VerticalHorizontal",-0.08913,18,"stimuli/VerticalHorizontal_18.0000_-0.08913.png","B",28,5381814,0.823,"ArrowLeft","false",1
"S001","VerticalHorizontal",0.03,9,"stimuli/VerticalHorizontal_9.00000_0.03000.png","B",29,5383569,0.287,"ArrowLeft","true",0
"S001","VerticalHorizontal",0.03,-18,"stimuli/VerticalHorizontal_-18.000_0.03000.png","B",30,5384889,0.235,"ArrowRight","false",1
"S001","VerticalHorizontal",-0.16122,9,"stimuli/VerticalHorizontal_9.00000_-0.16122.png","B",31,5386056,0.114,"ArrowLeft","false",1
"S001","VerticalHorizontal",-0.08913,-9,"stimuli/VerticalHorizontal_-9.0000_-0.08913.png","B",32,5387154,0.041,"ArrowRight","true",0
"S001","VerticalHorizontal",0.16122,45,"stimuli/VerticalHorizontal_45.0000_0.16122.png","B",33,5387853,1.256,"ArrowRight","false",1
"S001","VerticalHorizontal",-0.08913,-36,"stimuli/VerticalHorizontal_-36.000_-0.08913.png","B",34,5389956,0.463,"ArrowRight","true",0
"S001","VerticalHorizontal",0.24909,-45,"stimuli/VerticalHorizontal_-45.000_0.24909.png","B",35,5391416,0.121,"ArrowRight","false",1
"S001","VerticalHorizontal",0.08913,45,"stimuli/VerticalHorizontal_45.0000_0.08913.png","B",36,5392257,14.869,"ArrowLeft","true",0
"S001","VerticalHorizontal",0.24909,18,"stimuli/VerticalHorizontal_18.0000_0.24909.png","B",37,5407829,0.419,"ArrowRight","false",1
"S001","VerticalHorizontal",-0.03,18,"stimuli/VerticalHorizontal_18.0000_-0.0300.png","B",38,5409064,0.265,"ArrowRight","true",0
"S001","VerticalHorizontal",-0.03,-9,"stimuli/VerticalHorizontal_-9.0000_-0.0300.png","B",39,5410266,0.3,"ArrowRight","true",0
"S001","VerticalHorizontal",0.08913,27,"stimuli/VerticalHorizontal_27.0000_0.08913.png","B",40,5411237,0.436,"ArrowLeft","true",0
"S001","VerticalHorizontal",-0.24909,-27,"stimuli/VerticalHorizontal_-27.000_-0.24909.png","B",41,5412594,19.344,"ArrowRight","true",0
"S001","VerticalHorizontal",-0.03,-45,"stimuli/VerticalHorizontal_-45.000_-0.0300.png","B",42,5432963,0.371,"ArrowRight","true",0
"S001","VerticalHorizontal",0.16122,36,"stimuli/VerticalHorizontal_36.0000_0.16122.png","B",43,5434329,0.495,"ArrowLeft","true",0
"S001","VerticalHorizontal",-0.16122,-18,"stimuli/VerticalHorizontal_-18.000_-0.16122.png","B",44,5435837,0.788,"ArrowRight","true",0
"S001","VerticalHorizontal",0.03,-27,"stimuli/VerticalHorizontal_-27.000_0.03000.png","B",45,5437255,0.817,"ArrowRight","false",1
"S001","VerticalHorizontal",-0.24909,-36,"stimuli/VerticalHorizontal_-36.000_-0.24909.png","B",46,5439162,0.264,"ArrowRight","true",0
"S001","VerticalHorizontal",0.08913,-18,"stimuli/VerticalHorizontal_-18.000_0.08913.png","B",47,5440046,1.262,"ArrowLeft","true",0
"S001","VerticalHorizontal",-0.03,-36,"stimuli/VerticalHorizontal_-36.000_-0.0300.png","B",48,5442396,0.191,"ArrowRight","true",0
"S001","VerticalHorizontal",-0.16122,36,"stimuli/VerticalHorizontal_36.0000_-0.16122.png","B",49,5443417,0.289,"ArrowLeft","false",1
"S001","VerticalHorizontal",-0.03,27,"stimuli/VerticalHorizontal_27.0000_-0.0300.png","B",50,5444639,0.055,"ArrowLeft","false",1
"S001","VerticalHorizontal",0.24909,-9,"stimuli/VerticalHorizontal_-9.0000_0.24909.png","B",51,5445745,0.372,"ArrowRight","false",1
"S001","VerticalHorizontal",0.16122,-45,"stimuli/VerticalHorizontal_-45.000_0.16122.png","B",52,5446774,0.364,"ArrowLeft","true",0
"S001","VerticalHorizontal",0.08913,-9,"stimuli/VerticalHorizontal_-9.0000_0.08913.png","B",53,5447949,0.305,"ArrowLeft","true",0
"S001","VerticalHorizontal",-0.08913,-45,"stimuli/VerticalHorizontal_-45.000_-0.08913.png","B",54,5448908,0.26,"ArrowLeft","false",1
"S001","VerticalHorizontal",0.24909,-18,"stimuli/VerticalHorizontal_-18.000_0.24909.png","B",55,5449944,0.184,"ArrowRight","false",1
"S001","VerticalHorizontal",-0.08913,36,"stimuli/VerticalHorizontal_36.0000_-0.08913.png","B",56,5450737,0.243,"ArrowLeft","false",1
"S001","VerticalHorizontal",0.03,18,"stimuli/VerticalHorizontal_18.0000_0.03000.png","B",57,5451990,0.205,"ArrowRight","false",1
"S001","VerticalHorizontal",-0.03,-27,"stimuli/VerticalHorizontal_-27.000_-0.0300.png","B",58,5452933,0.225,"ArrowLeft","false",1
"S001","VerticalHorizontal",0.16122,-18,"stimuli/VerticalHorizontal_-18.000_0.16122.png","B",59,5454029,0.127,"ArrowLeft","true",0
"S001","VerticalHorizontal",0.03,-45,"stimuli/VerticalHorizontal_-45.000_0.03000.png","B",60,5455126,0.268,"ArrowLeft","true",0
"S001","VerticalHorizontal",0.24909,45,"stimuli/VerticalHorizontal_45.0000_0.24909.png","B",61,5456027,0.273,"ArrowRight","false",1
"S001","VerticalHorizontal",0.24909,27,"stimuli/VerticalHorizontal_27.0000_0.24909.png","B",62,5456951,0.263,"ArrowLeft","true",0
"S001","VerticalHorizontal",-0.24909,36,"stimuli/VerticalHorizontal_36.0000_-0.24909.png","B",63,5457909,0.223,"ArrowLeft","false",1
"S001","VerticalHorizontal",-0.24909,27,"stimuli/VerticalHorizontal_27.0000_-0.24909.png","B",64,5459102,0.302,"ArrowRight","true",0
"S001","VerticalHorizontal",-0.24909,-45,"stimuli/VerticalHorizontal_-45.000_-0.24909.png","B",65,5460426,0.352,"ArrowRight","true",0
"S001","VerticalHorizontal",0.08913,18,"stimuli/VerticalHorizontal_18.0000_0.08913.png","B",66,5461410,0.861,"ArrowRight","false",1
"S001","VerticalHorizontal",0.16122,27,"stimuli/VerticalHorizontal_27.0000_0.16122.png","B",67,5463055,0.607,"ArrowRight","false",1
"S001","VerticalHorizontal",-0.24909,45,"stimuli/VerticalHorizontal_45.0000_-0.24909.png","B",68,5464704,1.319,"ArrowRight","true",0
"S001","VerticalHorizontal",0.03,-36,"stimuli/VerticalHorizontal_-36.000_0.03000.png","B",69,5467055,1.025,"ArrowRight","false",1
"S001","VerticalHorizontal",0.16122,18,"stimuli/VerticalHorizontal_18.0000_0.16122.png","B",70,5469093,0.19,"ArrowRight","false",1
"S001","VerticalHorizontal",0.24909,-27,"stimuli/VerticalHorizontal_-27.000_0.24909.png","B",71,5470125,0.537,"ArrowRight","false",1
"S001","VerticalHorizontal",0.16122,9,"stimuli/VerticalHorizontal_9.00000_0.16122.png","B",72,5471528,0.59,"ArrowLeft","true",0
"S001","VerticalHorizontal",-0.03,9,"stimuli/VerticalHorizontal_9.00000_-0.0300.png","B",73,5473129,0.394,"ArrowRight","true",0
"S001","VerticalHorizontal",-0.16122,27,"stimuli/VerticalHorizontal_27.0000_-0.16122.png","B",74,5474518,0.301,"ArrowRight","true",0
"S001","VerticalHorizontal",0.03,-9,"stimuli/VerticalHorizontal_-9.0000_0.03000.png","B",75,5475893,0.543,"ArrowRight","false",1
"S001","VerticalHorizontal",0.08913,9,"stimuli/VerticalHorizontal_9.00000_0.08913.png","B",76,5477390,0.445,"ArrowLeft","true",0
"S001","VerticalHorizontal",0.08913,36,"stimuli/VerticalHorizontal_36.0000_0.08913.png","B",77,5478662,0.462,"ArrowLeft","true",0
"S001","VerticalHorizontal",-0.16122,-27,"stimuli/VerticalHorizontal_-27.000_-0.16122.png","B",78,5480086,0.622,"ArrowRight","true",0
"S001","VerticalHorizontal",-0.03,45,"stimuli/VerticalHorizontal_45.0000_-0.0300.png","B",79,5481787,0.036,"ArrowRight","true",0
"S001","VerticalHorizontal",-0.24909,18,"stimuli/VerticalHorizontal_18.0000_-0.24909.png","B",80,5482828,0.176,"ArrowRight","true",0
"S001","MullerLyer",0.45,-27,"stimuli/MullerLyer_-27.000_0.45000.png","A",1,5538832,0.71,"ArrowUp","true",0
"S001","MullerLyer",0.08716,27,"stimuli/MullerLyer_27.0000_0.08716.png","A",2,5540609,0.279,"ArrowDown","false",1
"S001","MullerLyer",-0.18509,-21,"stimuli/MullerLyer_-21.000_-0.18509.png","A",3,5541684,0.332,"ArrowDown","true",0
"S001","MullerLyer",0.45,-9,"stimuli/MullerLyer_-9.0000_0.45000.png","A",4,5543025,0.752,"ArrowDown","false",1
"S001","MullerLyer",-0.18509,27,"stimuli/MullerLyer_27.0000_-0.18509.png","A",5,5544852,2.094,"ArrowDown","true",0
"S001","MullerLyer",0.30447,-27,"stimuli/MullerLyer_-27.000_0.30447.png","A",6,5547643,1.309,"ArrowDown","false",1
"S001","MullerLyer",0.18509,27,"stimuli/MullerLyer_27.0000_0.18509.png","A",7,5549751,1.469,"ArrowDown","false",1
"S001","MullerLyer",-0.45,-21,"stimuli/MullerLyer_-21.000_-0.4500.png","A",8,5551885,1.289,"ArrowDown","true",0
"S001","MullerLyer",-0.45,-27,"stimuli/MullerLyer_-27.000_-0.4500.png","A",9,5553873,0.941,"ArrowUp","false",1
"S001","MullerLyer",-0.08716,3,"stimuli/MullerLyer_3.00000_-0.08716.png","A",10,5555658,1.59,"ArrowUp","false",1
"S001","MullerLyer",0.30447,15,"stimuli/MullerLyer_15.0000_0.30447.png","A",11,5558118,1.347,"ArrowDown","false",1
"S001","MullerLyer",-0.08716,9,"stimuli/MullerLyer_9.00000_-0.08716.png","A",12,5560168,1.225,"ArrowDown","true",0
"S001","MullerLyer",-0.30447,27,"stimuli/MullerLyer_27.0000_-0.30447.png","A",13,5562237,2.55,"ArrowDown","true",0
"S001","MullerLyer",0.45,-21,"stimuli/MullerLyer_-21.000_0.45000.png","A",14,5565589,0.801,"ArrowUp","true",0
"S001","MullerLyer",0.08716,-21,"stimuli/MullerLyer_-21.000_0.08716.png","A",15,5567204,1.32,"ArrowDown","false",1
"S001","MullerLyer",-0.18509,15,"stimuli/MullerLyer_15.0000_-0.18509.png","A",16,5569313,0.815,"ArrowDown","true",0
"S001","MullerLyer",-0.30447,21,"stimuli/MullerLyer_21.0000_-0.30447.png","A",17,5571012,2.13,"ArrowDown","true",0
"S001","MullerLyer",-0.30447,-9,"stimuli/MullerLyer_-9.0000_-0.30447.png","A",18,5574053,2.458,"ArrowDown","true",0
"S001","MullerLyer",0.45,-15,"stimuli/MullerLyer_-15.000_0.45000.png","A",19,5577122,1.848,"ArrowUp","true",0
"S001","MullerLyer",-0.18509,-15,"stimuli/MullerLyer_-15.000_-0.18509.png","A",20,5580014,0.993,"ArrowUp","false",1
"S001","MullerLyer",0.30447,27,"stimuli/MullerLyer_27.0000_0.30447.png","A",21,5581728,4.154,"ArrowDown","false",1
"S001","MullerLyer",-0.30447,-27,"stimuli/MullerLyer_-27.000_-0.30447.png","A",22,5586747,1.845,"ArrowDown","true",0
"S001","MullerLyer",-0.45,3,"stimuli/MullerLyer_3.00000_-0.4500.png","A",23,5589630,0.57,"ArrowUp","false",1
"S001","MullerLyer",-0.30447,-15,"stimuli/MullerLyer_-15.000_-0.30447.png","A",24,5591266,1.462,"ArrowUp","false",1
"S001","MullerLyer",0.18509,15,"stimuli/MullerLyer_15.0000_0.18509.png","A",25,5593359,1.602,"ArrowUp","true",0
"S001","MullerLyer",0.30447,-3,"stimuli/MullerLyer_-3.0000_0.30447.png","A",26,5596013,0.886,"ArrowDown","false",1
"S001","MullerLyer",-0.30447,9,"stimuli/MullerLyer_9.00000_-0.30447.png","A",27,5597796,1.054,"ArrowDown","true",0
"S001","MullerLyer",-0.08716,-9,"stimuli/MullerLyer_-9.0000_-0.08716.png","A",28,5599812,0.847,"ArrowDown","true",0
"S001","MullerLyer",0.18509,3,"stimuli/MullerLyer_3.00000_0.18509.png","A",29,5601312,1.878,"ArrowDown","false",1
"S001","MullerLyer",-0.18509,21,"stimuli/MullerLyer_21.0000_-0.18509.png","A",30,5604059,1.531,"ArrowUp","false",1
"S001","MullerLyer",-0.30447,15,"stimuli/MullerLyer_15.0000_-0.30447.png","A",31,5606407,0.466,"ArrowUp","false",1
"S001","MullerLyer",-0.18509,-27,"stimuli/MullerLyer_-27.000_-0.18509.png","A",32,5607510,1.022,"ArrowUp","false",1
"S001","MullerLyer",-0.30447,-21,"stimuli/MullerLyer_-21.000_-0.30447.png","A",33,5609388,0.983,"ArrowDown","true",0
"S001","MullerLyer",-0.08716,15,"stimuli/MullerLyer_15.0000_-0.08716.png","A",34,5611043,1.349,"ArrowDown","true",0
"S001","MullerLyer",-0.45,-15,"stimuli/MullerLyer_-15.000_-0.4500.png","A",35,5613260,2.15,"ArrowDown","true",0
"S001","MullerLyer",0.08716,15,"stimuli/MullerLyer_15.0000_0.08716.png","A",36,5616040,3.694,"ArrowDown","false",1
"S001","MullerLyer",-0.45,9,"stimuli/MullerLyer_9.00000_-0.4500.png","A",37,5620384,1.642,"ArrowDown","true",0
"S001","MullerLyer",0.30447,3,"stimuli/MullerLyer_3.00000_0.30447.png","A",38,5622769,1.497,"ArrowDown","false",1
"S001","MullerLyer",0.08716,-9,"stimuli/MullerLyer_-9.0000_0.08716.png","A",39,5624992,0.636,"ArrowDown","false",1
"S001","MullerLyer",-0.30447,-3,"stimuli/MullerLyer_-3.0000_-0.30447.png","A",40,5626302,0.699,"ArrowUp","false",1
"S001","MullerLyer",0.45,15,"stimuli/MullerLyer_15.0000_0.45000.png","A",41,5627970,1.002,"ArrowUp","true",0
"S001","MullerLyer",0.18509,-21,"stimuli/MullerLyer_-21.000_0.18509.png","A",42,5630066,0.79,"ArrowUp","true",0
"S001","MullerLyer",-0.45,27,"stimuli/MullerLyer_27.0000_-0.4500.png","A",43,5631805,1.385,"ArrowUp","false",1
"S001","MullerLyer",0.18509,-3,"stimuli/MullerLyer_-3.0000_0.18509.png","A",44,5633799,1.279,"ArrowUp","true",0
"S001","MullerLyer",0.45,3,"stimuli/MullerLyer_3.00000_0.45000.png","A",45,5636069,1.701,"ArrowUp","true",0
"S001","MullerLyer",0.45,27,"stimuli/MullerLyer_27.0000_0.45000.png","A",46,5638729,0.173,"ArrowDown","false",1
"S001","MullerLyer",0.30447,-15,"stimuli/MullerLyer_-15.000_0.30447.png","A",47,5639866,0.325,"ArrowDown","false",1
"S001","MullerLyer",-0.08716,-3,"stimuli/MullerLyer_-3.0000_-0.08716.png","A",48,5641245,0.522,"ArrowDown","true",0
"S001","MullerLyer",-0.08716,-21,"stimuli/MullerLyer_-21.000_-0.08716.png","A",49,5642784,5.922,"ArrowDown","true",0
"S001","MullerLyer",0.08716,-15,"stimuli/MullerLyer_-15.000_0.08716.png","A",50,5649651,0.815,"ArrowUp","true",0
"S001","MullerLyer",-0.45,21,"stimuli/MullerLyer_21.0000_-0.4500.png","A",51,5651215,1.048,"ArrowDown","true",0
"S001","MullerLyer",-0.18509,-9,"stimuli/MullerLyer_-9.0000_-0.18509.png","A",52,5653250,0.858,"ArrowDown","true",0
"S001","MullerLyer",0.30447,-21,"stimuli/MullerLyer_-21.000_0.30447.png","A",53,5654790,1.224,"ArrowUp","true",0
"S001","MullerLyer",0.45,21,"stimuli/MullerLyer_21.0000_0.45000.png","A",54,5656826,2.863,"ArrowUp","true",0
"S001","MullerLyer",0.18509,21,"stimuli/MullerLyer_21.0000_0.18509.png","A",55,5660746,0.323,"ArrowDown","false",1
"S001","MullerLyer",0.30447,9,"stimuli/MullerLyer_9.00000_0.30447.png","A",56,5661678,0.687,"ArrowDown","false",1
"S001","MullerLyer",-0.18509,9,"stimuli/MullerLyer_9.00000_-0.18509.png","A",57,5663054,0.979,"ArrowDown","true",0
"S001","MullerLyer",-0.45,15,"stimuli/MullerLyer_15.0000_-0.4500.png","A",58,5664957,1.922,"ArrowDown","true",0
"S001","MullerLyer",-0.30447,3,"stimuli/MullerLyer_3.00000_-0.30447.png","A",59,5667887,1.642,"ArrowDown","true",0
"S001","MullerLyer",-0.08716,-27,"stimuli/MullerLyer_-27.000_-0.08716.png","A",60,5670249,1.618,"ArrowDown","true",0
"S001","MullerLyer",0.08716,21,"stimuli/MullerLyer_21.0000_0.08716.png","A",61,5672781,0.513,"ArrowUp","true",0
"S001","MullerLyer",0.08716,-27,"stimuli/MullerLyer_-27.000_0.08716.png","A",62,5673969,2.52,"ArrowDown","false",1
"S001","MullerLyer",0.30447,-9,"stimuli/MullerLyer_-9.0000_0.30447.png","A",63,5677254,0.986,"ArrowDown","false",1
"S001","MullerLyer",0.18509,-27,"stimuli/MullerLyer_-27.000_0.18509.png","A",64,5679306,1.053,"ArrowUp","true",0
"S001","MullerLyer",-0.45,-9,"stimuli/MullerLyer_-9.0000_-0.4500.png","A",65,5681069,1.349,"ArrowUp","false",1
"S001","MullerLyer",0.08716,-3,"stimuli/MullerLyer_-3.0000_0.08716.png","A",66,5683322,0.552,"ArrowDown","false",1
"S001","MullerLyer",-0.08716,27,"stimuli/MullerLyer_27.0000_-0.08716.png","A",67,5684809,0.29,"ArrowDown","true",0
"S001","MullerLyer",0.18509,-9,"stimuli/MullerLyer_-9.0000_0.18509.png","A",68,5685880,0.348,"ArrowDown","false",1
"S001","MullerLyer",0.45,-3,"stimuli/MullerLyer_-3.0000_0.45000.png","A",69,5687204,0.211,"ArrowDown","false",1
"S001","MullerLyer",0.18509,-15,"stimuli/MullerLyer_-15.000_0.18509.png","A",70,5688408,0.232,"ArrowUp","true",0
"S001","MullerLyer",-0.45,-3,"stimuli/MullerLyer_-3.0000_-0.4500.png","A",71,5689502,0.23,"ArrowUp","false",1
"S001","MullerLyer",-0.08716,-15,"stimuli/MullerLyer_-15.000_-0.08716.png","A",72,5690793,0.155,"ArrowDown","true",0
"S001","MullerLyer",-0.08716,21,"stimuli/MullerLyer_21.0000_-0.08716.png","A",73,5691596,0.441,"ArrowDown","true",0
"S001","MullerLyer",-0.18509,-3,"stimuli/MullerLyer_-3.0000_-0.18509.png","A",74,5692700,0.475,"ArrowDown","true",0
"S001","MullerLyer",0.08716,9,"stimuli/MullerLyer_9.00000_0.08716.png","A",75,5694195,0.654,"ArrowUp","true",0
"S001","MullerLyer",0.18509,9,"stimuli/MullerLyer_9.00000_0.18509.png","A",76,5695808,0.006,"ArrowUp","true",0
"S001","MullerLyer",-0.18509,3,"stimuli/MullerLyer_3.00000_-0.18509.png","A",77,5696696,0.424,"ArrowDown","true",0
"S001","MullerLyer",0.45,9,"stimuli/MullerLyer_9.00000_0.45000.png","A",78,5697860,0.496,"ArrowDown","false",1
"S001","MullerLyer",0.30447,21,"stimuli/MullerLyer_21.0000_0.30447.png","A",79,5699137,0.654,"ArrowUp","true",0
"S001","MullerLyer",0.08716,3,"stimuli/MullerLyer_3.00000_0.08716.png","A",80,5700707,0.186,"ArrowDown","false",1
"S001","Ebbinghaus",0.09684,0.75,"stimuli/Ebbinghaus_0.75000_0.09684.png","A",1,5706286,1.405,"ArrowRight","false",1
"S001","Ebbinghaus",-0.5,-0.75,"stimuli/Ebbinghaus_-0.7500_-0.5000.png","A",2,5708637,0.925,"ArrowRight","true",0
"S001","Ebbinghaus",0.3383,-1.05,"stimuli/Ebbinghaus_-1.0500_0.33830.png","A",3,5710322,1.347,"ArrowRight","false",1
"S001","Ebbinghaus",0.5,-1.35,"stimuli/Ebbinghaus_-1.3500_0.50000.png","A",4,5712776,0.369,"ArrowLeft","true",0
"S001","Ebbinghaus",-0.5,0.45,"stimuli/Ebbinghaus_0.45000_-0.5000.png","A",5,5713934,1.263,"ArrowLeft","false",1
"S001","Ebbinghaus",-0.5,0.75,"stimuli/Ebbinghaus_0.75000_-0.5000.png","A",6,5715969,0.768,"ArrowRight","true",0
"S001","Ebbinghaus",-0.5,-1.35,"stimuli/Ebbinghaus_-1.3500_-0.5000.png","A",7,5717487,0.989,"ArrowRight","true",0
"S001","Ebbinghaus",0.09684,0.15,"stimuli/Ebbinghaus_0.15000_0.09684.png","A",8,5719151,1.729,"ArrowRight","false",1
"S001","Ebbinghaus",-0.20566,-0.75,"stimuli/Ebbinghaus_-0.7500_-0.20566.png","A",9,5721746,0.831,"ArrowLeft","false",1
"S001","Ebbinghaus",0.5,1.05,"stimuli/Ebbinghaus_1.05000_0.50000.png","A",10,5723640,0.918,"ArrowLeft","true",0
"S001","Ebbinghaus",-0.3383,0.45,"stimuli/Ebbinghaus_0.45000_-0.3383.png","A",11,5725427,1.007,"ArrowLeft","false",1
"S001","Ebbinghaus",0.3383,0.75,"stimuli/Ebbinghaus_0.75000_0.33830.png","A",12,5727390,0.909,"ArrowRight","false",1
"S001","Ebbinghaus",-0.20566,0.15,"stimuli/Ebbinghaus_0.15000_-0.20566.png","A",13,5729068,1.018,"ArrowRight","true",0
"S001","Ebbinghaus",0.20566,-1.35,"stimuli/Ebbinghaus_-1.3500_0.20566.png","A",14,5731080,0.605,"ArrowLeft","true",0
"S001","Ebbinghaus",0.5,0.45,"stimuli/Ebbinghaus_0.45000_0.50000.png","A",15,5732403,2.203,"ArrowLeft","true",0
"S001","Ebbinghaus",-0.20566,0.45,"stimuli/Ebbinghaus_0.45000_-0.20566.png","A",16,5735572,1.339,"ArrowRight","true",0
"S001","Ebbinghaus",-0.20566,1.35,"stimuli/Ebbinghaus_1.35000_-0.20566.png","A",17,5737720,0.721,"ArrowRight","true",0
"S001","Ebbinghaus",0.09684,-1.05,"stimuli/Ebbinghaus_-1.0500_0.09684.png","A",18,5739199,1.314,"ArrowRight","false",1
"S001","Ebbinghaus",0.20566,0.75,"stimuli/Ebbinghaus_0.75000_0.20566.png","A",19,5741305,0.675,"ArrowLeft","true",0
"S001","Ebbinghaus",-0.3383,-0.45,"stimuli/Ebbinghaus_-0.4500_-0.3383.png","A",20,5742677,2.07,"ArrowLeft","false",1
"S001","Ebbinghaus",0.5,-0.45,"stimuli/Ebbinghaus_-0.4500_0.50000.png","A",21,5745698,1.133,"ArrowLeft","true",0
"S001","Ebbinghaus",-0.5,1.05,"stimuli/Ebbinghaus_1.05000_-0.5000.png","A",22,5747939,0.563,"ArrowRight","true",0
"S001","Ebbinghaus",0.3383,-1.35,"stimuli/Ebbinghaus_-1.3500_0.33830.png","A",23,5749572,1.676,"ArrowRight","false",1
"S001","Ebbinghaus",0.3383,0.15,"stimuli/Ebbinghaus_0.15000_0.33830.png","A",24,5752173,2.438,"ArrowLeft","true",0
"S001","Ebbinghaus",0.09684,1.05,"stimuli/Ebbinghaus_1.05000_0.09684.png","A",25,5755256,1.003,"ArrowLeft","true",0
"S001","Ebbinghaus",0.20566,-0.15,"stimuli/Ebbinghaus_-0.1500_0.20566.png","A",26,5757082,1.03,"ArrowRight","false",1
"S001","Ebbinghaus",0.20566,0.15,"stimuli/Ebbinghaus_0.15000_0.20566.png","A",27,5758863,0.523,"ArrowRight","false",1
"S001","Ebbinghaus",-0.5,-1.05,"stimuli/Ebbinghaus_-1.0500_-0.5000.png","A",28,5760457,0.923,"ArrowLeft","false",1
"S001","Ebbinghaus",-0.5,-0.15,"stimuli/Ebbinghaus_-0.1500_-0.5000.png","A",29,5762077,1.595,"ArrowRight","true",0
"S001","Ebbinghaus",0.09684,1.35,"stimuli/Ebbinghaus_1.35000_0.09684.png","A",30,5764619,0.713,"ArrowLeft","true",0
"S001","Ebbinghaus",0.09684,-0.75,"stimuli/Ebbinghaus_-0.7500_0.09684.png","A",31,5766218,1.168,"ArrowLeft","true",0
"S001","Ebbinghaus",0.09684,-0.45,"stimuli/Ebbinghaus_-0.4500_0.09684.png","A",32,5768230,1.857,"ArrowRight","false",1
"S001","Ebbinghaus",0.5,1.35,"stimuli/Ebbinghaus_1.35000_0.50000.png","A",33,5770934,0.923,"ArrowRight","false",1
"S001","Ebbinghaus",-0.09684,0.75,"stimuli/Ebbinghaus_0.75000_-0.09684.png","A",34,5772958,1.064,"ArrowLeft","false",1
"S001","Ebbinghaus",-0.5,1.35,"stimuli/Ebbinghaus_1.35000_-0.5000.png","A",35,5774664,1.549,"ArrowRight","true",0
"S001","Ebbinghaus",-0.09684,-1.05,"stimuli/Ebbinghaus_-1.0500_-0.09684.png","A",36,5776962,0.633,"ArrowLeft","false",1
"S001","Ebbinghaus",0.20566,0.45,"stimuli/Ebbinghaus_0.45000_0.20566.png","A",37,5778374,0.927,"ArrowLeft","true",0
"S001","Ebbinghaus",-0.3383,-0.75,"stimuli/Ebbinghaus_-0.7500_-0.3383.png","A",38,5780110,0.673,"ArrowRight","true",0
"S001","Ebbinghaus",-0.09684,1.05,"stimuli/Ebbinghaus_1.05000_-0.09684.png","A",39,5781671,0.877,"ArrowRight","true",0
"S001","Ebbinghaus",-0.3383,1.05,"stimuli/Ebbinghaus_1.05000_-0.3383.png","A",40,5783593,0.52,"ArrowLeft","false",1
"S001","Ebbinghaus",0.3383,1.35,"stimuli/Ebbinghaus_1.35000_0.33830.png","A",41,5785032,0.387,"ArrowLeft","true",0
"S001","Ebbinghaus",0.20566,1.35,"stimuli/Ebbinghaus_1.35000_0.20566.png","A",42,5786223,0.663,"ArrowRight","false",1
"S001","Ebbinghaus",-0.09684,0.15,"stimuli/Ebbinghaus_0.15000_-0.09684.png","A",43,5787513,0.7,"ArrowRight","true",0
"S001","Ebbinghaus",0.3383,1.05,"stimuli/Ebbinghaus_1.05000_0.33830.png","A",44,5788855,0.699,"ArrowLeft","true",0
"S001","Ebbinghaus",0.3383,-0.45,"stimuli/Ebbinghaus_-0.4500_0.33830.png","A",45,5790260,0.632,"ArrowRight","false",1
"S001","Ebbinghaus",-0.09684,-0.15,"stimuli/Ebbinghaus_-0.1500_-0.09684.png","A",46,5791924,0.824,"ArrowLeft","false",1
"S001","Ebbinghaus",-0.20566,-1.35,"stimuli/Ebbinghaus_-1.3500_-0.20566.png","A",47,5793395,0.812,"ArrowLeft","false",1
"S001","Ebbinghaus",0.09684,-1.35,"stimuli/Ebbinghaus_-1.3500_0.09684.png","A",48,5794903,0.832,"ArrowRight","false",1
"S001","Ebbinghaus",-0.3383,-1.35,"stimuli/Ebbinghaus_-1.3500_-0.3383.png","A",49,5796776,1.17,"ArrowRight","true",0
"S001","Ebbinghaus",0.5,-1.05,"stimuli/Ebbinghaus_-1.0500_0.50000.png","A",50,5798635,1.47,"ArrowLeft","true",0
"S001","Ebbinghaus",0.3383,-0.15,"stimuli/Ebbinghaus_-0.1500_0.33830.png","A",51,5800997,0.954,"ArrowLeft","true",0
"S001","Ebbinghaus",-0.3383,0.75,"stimuli/Ebbinghaus_0.75000_-0.3383.png","A",52,5802965,1.625,"ArrowRight","true",0
"S001","Ebbinghaus",0.5,-0.75,"stimuli/Ebbinghaus_-0.7500_0.50000.png","A",53,5805430,0.84,"ArrowLeft","true",0
"S001","Ebbinghaus",-0.09684,-0.75,"stimuli/Ebbinghaus_-0.7500_-0.09684.png","A",54,5806988,1.889,"ArrowRight","true",0
"S001","Ebbinghaus",0.3383,-0.75,"stimuli/Ebbinghaus_-0.7500_0.33830.png","A",55,5809850,0.567,"ArrowRight","false",1
"S001","Ebbinghaus",-0.09684,0.45,"stimuli/Ebbinghaus_0.45000_-0.09684.png","A",56,5811509,1.996,"ArrowLeft","false",1
"S001","Ebbinghaus",-0.20566,-1.05,"stimuli/Ebbinghaus_-1.0500_-0.20566.png","A",57,5814468,0.933,"ArrowLeft","false",1
"S001","Ebbinghaus",-0.3383,0.15,"stimuli/Ebbinghaus_0.15000_-0.3383.png","A",58,5816225,0.533,"ArrowRight","true",0
"S001","Ebbinghaus",-0.20566,-0.15,"stimuli/Ebbinghaus_-0.1500_-0.20566.png","A",59,5817434,3.097,"ArrowRight","true",0
"S001","Ebbinghaus",-0.09684,1.35,"stimuli/Ebbinghaus_1.35000_-0.09684.png","A",60,5821421,0.538,"ArrowRight","true",0
"S001","Ebbinghaus",-0.5,0.15,"stimuli/Ebbinghaus_0.15000_-0.5000.png","A",61,5822960,1.236,"ArrowLeft","false",1
"S001","Ebbinghaus",0.20566,1.05,"stimuli/Ebbinghaus_1.05000_0.20566.png","A",62,5824868,0.615,"ArrowLeft","true",0
"S001","Ebbinghaus",-0.09684,-1.35,"stimuli/Ebbinghaus_-1.3500_-0.09684.png","A",63,5826550,0.495,"ArrowRight","true",0
"S001","Ebbinghaus",-0.3383,-0.15,"stimuli/Ebbinghaus_-0.1500_-0.3383.png","A",64,5827663,1.938,"ArrowRight","true",0
"S001","Ebbinghaus",-0.5,-0.45,"stimuli/Ebbinghaus_-0.4500_-0.5000.png","A",65,5830640,1.659,"ArrowRight","true",0
"S001","Ebbinghaus",0.20566,-0.45,"stimuli/Ebbinghaus_-0.4500_0.20566.png","A",66,5832984,1.598,"ArrowLeft","true",0
"S001","Ebbinghaus",-0.20566,-0.45,"stimuli/Ebbinghaus_-0.4500_-0.20566.png","A",67,5835610,0.875,"ArrowLeft","false",1
"S001","Ebbinghaus",0.09684,0.45,"stimuli/Ebbinghaus_0.45000_0.09684.png","A",68,5837296,1.239,"ArrowRight","false",1
"S001","Ebbinghaus",0.20566,-0.75,"stimuli/Ebbinghaus_-0.7500_0.20566.png","A",69,5839376,1.436,"ArrowLeft","true",0
"S001","Ebbinghaus",0.5,0.75,"stimuli/Ebbinghaus_0.75000_0.50000.png","A",70,5841807,1.575,"ArrowRight","false",1
"S001","Ebbinghaus",-0.3383,1.35,"stimuli/Ebbinghaus_1.35000_-0.3383.png","A",71,5844062,2.22,"ArrowRight","true",0
"S001","Ebbinghaus",-0.3383,-1.05,"stimuli/Ebbinghaus_-1.0500_-0.3383.png","A",72,5847301,0.511,"ArrowRight","true",0
"S001","Ebbinghaus",0.5,0.15,"stimuli/Ebbinghaus_0.15000_0.50000.png","A",73,5848433,2.796,"ArrowRight","false",1
"S001","Ebbinghaus",-0.20566,0.75,"stimuli/Ebbinghaus_0.75000_-0.20566.png","A",74,5852167,2.465,"ArrowLeft","false",1
"S001","Ebbinghaus",0.3383,0.45,"stimuli/Ebbinghaus_0.45000_0.33830.png","A",75,5855398,0.51,"ArrowRight","false",1
"S001","Ebbinghaus",0.09684,-0.15,"stimuli/Ebbinghaus_-0.1500_0.09684.png","A",76,5856692,0.978,"ArrowRight","false",1
"S001","Ebbinghaus",0.5,-0.15,"stimuli/Ebbinghaus_-0.1500_0.50000.png","A",77,5858351,1.608,"ArrowLeft","true",0
"S001","Ebbinghaus",-0.09684,-0.45,"stimuli/Ebbinghaus_-0.4500_-0.09684.png","A",78,5860922,0.873,"ArrowLeft","false",1
"S001","Ebbinghaus",-0.20566,1.05,"stimuli/Ebbinghaus_1.05000_-0.20566.png","A",79,5862905,0.314,"ArrowRight","true",0
"S001","Ebbinghaus",0.20566,-1.05,"stimuli/Ebbinghaus_-1.0500_0.20566.png","A",80,5864119,0.624,"ArrowRight","false",1
"S001","VerticalHorizontal",-0.0581,13.5,"stimuli/VerticalHorizontal_13.5000_-0.0581.png","A",1,5879254,0.324,"ArrowRight","true",0
"S001","VerticalHorizontal",0.3,-13.5,"stimuli/VerticalHorizontal_-13.500_0.30000.png","A",2,5880323,1.535,"ArrowRight","false",1
"S001","VerticalHorizontal",0.0581,4.5,"stimuli/VerticalHorizontal_4.50000_0.05810.png","A",3,5882844,1.441,"ArrowRight","false",1
"S001","VerticalHorizontal",0.3,13.5,"stimuli/VerticalHorizontal_13.5000_0.30000.png","A",4,5885058,1.293,"ArrowLeft","true",0
"S001","VerticalHorizontal",0.3,-4.5,"stimuli/VerticalHorizontal_-4.5000_0.30000.png","A",5,5887099,1.825,"ArrowRight","false",1
"S001","VerticalHorizontal",0.12339,-13.5,"stimuli/VerticalHorizontal_-13.500_0.12339.png","A",6,5889870,1.426,"ArrowLeft","true",0
"S001","VerticalHorizontal",-0.3,13.5,"stimuli/VerticalHorizontal_13.5000_-0.3000.png","A",7,5892161,1.927,"ArrowLeft","false",1
"S001","VerticalHorizontal",-0.20298,-40.5,"stimuli/VerticalHorizontal_-40.500_-0.20298.png","A",8,5895024,1.104,"ArrowRight","true",0
"S001","VerticalHorizontal",0.12339,-4.5,"stimuli/VerticalHorizontal_-4.5000_0.12339.png","A",9,5897165,2.389,"ArrowLeft","true",0
"S001","VerticalHorizontal",-0.20298,-4.5,"stimuli/VerticalHorizontal_-4.5000_-0.20298.png","A",10,5900429,2.044,"ArrowRight","true",0
"S001","VerticalHorizontal",0.20298,-40.5,"stimuli/VerticalHorizontal_-40.500_0.20298.png","A",11,5903107,2.421,"ArrowLeft","true",0
"S001","VerticalHorizontal",0.0581,-4.5,"stimuli/VerticalHorizontal_-4.5000_0.05810.png","A",12,5906166,1.229,"ArrowRight","false",1
"S001","VerticalHorizontal",0.12339,31.5,"stimuli/VerticalHorizontal_31.5000_0.12339.png","A",13,5908241,2.054,"ArrowLeft","true",0
"S001","VerticalHorizontal",0.0581,22.5,"stimuli/VerticalHorizontal_22.5000_0.05810.png","A",14,5911085,1.706,"ArrowRight","false",1
"S001","VerticalHorizontal",0.3,-31.5,"stimuli/VerticalHorizontal_-31.500_0.30000.png","A",15,5913609,0.68,"ArrowLeft","true",0
"S001","VerticalHorizontal",-0.20298,-22.5,"stimuli/VerticalHorizontal_-22.500_-0.20298.png","A",16,5915192,1.293,"ArrowRight","true",0
"S001","VerticalHorizontal",0.12339,22.5,"stimuli/VerticalHorizontal_22.5000_0.12339.png","A",17,5917454,1.407,"ArrowRight","false",1
"S001","VerticalHorizontal",0.12339,4.5,"stimuli/VerticalHorizontal_4.50000_0.12339.png","A",18,5919788,0.443,"ArrowLeft","true",0
"S001","VerticalHorizontal",-0.12339,22.5,"stimuli/VerticalHorizontal_22.5000_-0.12339.png","A",19,5920936,0.821,"ArrowRight","true",0
"S001","VerticalHorizontal",0.0581,-40.5,"stimuli/VerticalHorizontal_-40.500_0.05810.png","A",20,5922707,2.524,"ArrowRight","false",1
"S001","VerticalHorizontal",-0.0581,-13.5,"stimuli/VerticalHorizontal_-13.500_-0.0581.png","A",21,5926091,2.289,"ArrowRight","true",0
"S001","VerticalHorizontal",-0.12339,4.5,"stimuli/VerticalHorizontal_4.50000_-0.12339.png","A",22,5929371,1.908,"ArrowLeft","false",1
"S001","VerticalHorizontal",-0.20298,-31.5,"stimuli/VerticalHorizontal_-31.500_-0.20298.png","A",23,5932376,0.847,"ArrowRight","true",0
"S001","VerticalHorizontal",0.20298,-13.5,"stimuli/VerticalHorizontal_-13.500_0.20298.png","A",24,5933951,1.62,"ArrowLeft","true",0
"S001","VerticalHorizontal",0.3,-40.5,"stimuli/VerticalHorizontal_-40.500_0.30000.png","A",25,5936532,2.74,"ArrowRight","false",1
"S001","VerticalHorizontal",-0.0581,-31.5,"stimuli/VerticalHorizontal_-31.500_-0.0581.png","A",26,5939990,0.966,"ArrowLeft","false",1
"S001","VerticalHorizontal",0.3,4.5,"stimuli/VerticalHorizontal_4.50000_0.30000.png","A",27,5941703,1.444,"ArrowRight","false",1
"S001","VerticalHorizontal",-0.3,31.5,"stimuli/VerticalHorizontal_31.5000_-0.3000.png","A",28,5944133,1.577,"ArrowRight","true",0
"S001","VerticalHorizontal",-0.12339,-4.5,"stimuli/VerticalHorizontal_-4.5000_-0.12339.png","A",29,5946577,1.113,"ArrowLeft","false",1
"S001","VerticalHorizontal",-0.12339,-22.5,"stimuli/VerticalHorizontal_-22.500_-0.12339.png","A",30,5948479,1.318,"ArrowRight","true",0
"S001","VerticalHorizontal",-0.0581,40.5,"stimuli/VerticalHorizontal_40.5000_-0.0581.png","A",31,5950769,0.449,"ArrowLeft","false",1
"S001","VerticalHorizontal",-0.3,-4.5,"stimuli/VerticalHorizontal_-4.5000_-0.3000.png","A",32,5951914,1.198,"ArrowLeft","false",1
"S001","VerticalHorizontal",-0.20298,4.5,"stimuli/VerticalHorizontal_4.50000_-0.20298.png","A",33,5953833,1.203,"ArrowLeft","false",1
"S001","VerticalHorizontal",-0.20298,-13.5,"stimuli/VerticalHorizontal_-13.500_-0.20298.png","A",34,5956036,0.687,"ArrowLeft","false",1
"S001","VerticalHorizontal",-0.0581,-22.5,"stimuli/VerticalHorizontal_-22.500_-0.0581.png","A",35,5957809,1.357,"ArrowRight","true",0
"S001","VerticalHorizontal",-0.20298,22.5,"stimuli/VerticalHorizontal_22.5000_-0.20298.png","A",36,5960097,0.641,"ArrowLeft","false",1
"S001","VerticalHorizontal",0.0581,-22.5,"stimuli/VerticalHorizontal_-22.500_0.05810.png","A",37,5961350,0.968,"ArrowRight","false",1
"S001","VerticalHorizontal",0.0581,-13.5,"stimuli/VerticalHorizontal_-13.500_0.05810.png","A",38,5962971,2.029,"ArrowLeft","true",0
"S001","VerticalHorizontal",0.20298,13.5,"stimuli/VerticalHorizontal_13.5000_0.20298.png","A",39,5965738,2.274,"ArrowLeft","true",0
"S001","VerticalHorizontal",-0.3,4.5,"stimuli/VerticalHorizontal_4.50000_-0.3000.png","A",40,5968750,1.857,"ArrowLeft","false",1
"S001","VerticalHorizontal",-0.20298,40.5,"stimuli/VerticalHorizontal_40.5000_-0.20298.png","A",41,5971511,1.03,"ArrowRight","true",0
"S001","VerticalHorizontal",-0.3,-31.5,"stimuli/VerticalHorizontal_-31.500_-0.3000.png","A",42,5973403,0.976,"ArrowLeft","false",1
"S001","VerticalHorizontal",-0.0581,22.5,"stimuli/VerticalHorizontal_22.5000_-0.0581.png","A",43,5975451,0.437,"ArrowLeft","false",1
"S001","VerticalHorizontal",-0.3,40.5,"stimuli/VerticalHorizontal_40.5000_-0.3000.png","A",44,5976721,2.092,"ArrowLeft","false",1
"S001","VerticalHorizontal",-0.0581,4.5,"stimuli/VerticalHorizontal_4.50000_-0.0581.png","A",45,5979872,1.641,"ArrowRight","true",0
"S001","VerticalHorizontal",0.20298,-4.5,"stimuli/VerticalHorizontal_-4.5000_0.20298.png","A",46,5982425,1.01,"ArrowLeft","true",0
"S001","VerticalHorizontal",0.0581,-31.5,"stimuli/VerticalHorizontal_-31.500_0.05810.png","A",47,5984162,1.832,"ArrowRight","false",1
"S001","VerticalHorizontal",-0.12339,-40.5,"stimuli/VerticalHorizontal_-40.500_-0.12339.png","A",48,5986878,0.951,"ArrowRight","true",0
"S001","VerticalHorizontal",-0.12339,31.5,"stimuli/VerticalHorizontal_31.5000_-0.12339.png","A",49,5988477,0.817,"ArrowRight","true",0
"S001","VerticalHorizontal",0.20298,31.5,"stimuli/VerticalHorizontal_31.5000_0.20298.png","A",50,5990141,1.904,"ArrowRight","false",1
"S001","VerticalHorizontal",0.12339,-31.5,"stimuli/VerticalHorizontal_-31.500_0.12339.png","A",51,5993142,0.576,"ArrowRight","false",1
"S001","VerticalHorizontal",-0.12339,13.5,"stimuli/VerticalHorizontal_13.5000_-0.12339.png","A",52,5994617,0.695,"ArrowLeft","false",1
"S001","VerticalHorizontal",0.20298,40.5,"stimuli/VerticalHorizontal_40.5000_0.20298.png","A",53,5996114,2.195,"ArrowLeft","true",0
"S001","VerticalHorizontal",-0.20298,31.5,"stimuli/VerticalHorizontal_31.5000_-0.20298.png","A",54,5999011,0.281,"ArrowLeft","false",1
"S001","VerticalHorizontal",0.12339,13.5,"stimuli/VerticalHorizontal_13.5000_0.12339.png","A",55,5999900,0.326,"ArrowLeft","true",0
"S001","VerticalHorizontal",0.12339,40.5,"stimuli/VerticalHorizontal_40.5000_0.12339.png","A",56,6001003,0.386,"ArrowRight","false",1
"S001","VerticalHorizontal",0.20298,22.5,"stimuli/VerticalHorizontal_22.5000_0.20298.png","A",57,6002364,1.428,"ArrowRight","false",1
"S001","VerticalHorizontal",-0.3,-40.5,"stimuli/VerticalHorizontal_-40.500_-0.3000.png","A",58,6004675,1.002,"ArrowLeft","false",1
"S001","VerticalHorizontal",-0.12339,-13.5,"stimuli/VerticalHorizontal_-13.500_-0.12339.png","A",59,6006774,0.123,"ArrowLeft","false",1
"S001","VerticalHorizontal",0.20298,-22.5,"stimuli/VerticalHorizontal_-22.500_0.20298.png","A",60,6008007,0.76,"ArrowLeft","true",0
"S001","VerticalHorizontal",0.0581,13.5,"stimuli/VerticalHorizontal_13.5000_0.05810.png","A",61,6009601,1.339,"ArrowLeft","true",0
"S001","VerticalHorizontal",0.12339,-22.5,"stimuli/VerticalHorizontal_-22.500_0.12339.png","A",62,6011609,1.794,"ArrowLeft","true",0
"S001","VerticalHorizontal",0.3,31.5,"stimuli/VerticalHorizontal_31.5000_0.30000.png","A",63,6014079,1.728,"ArrowRight","false",1
"S001","VerticalHorizontal",0.20298,4.5,"stimuli/VerticalHorizontal_4.50000_0.20298.png","A",64,6016550,1.615,"ArrowLeft","true",0
"S001","VerticalHorizontal",-0.3,22.5,"stimuli/VerticalHorizontal_22.5000_-0.3000.png","A",65,6018950,1.244,"ArrowLeft","false",1
"S001","VerticalHorizontal",-0.12339,40.5,"stimuli/VerticalHorizontal_40.5000_-0.12339.png","A",66,6021282,1.537,"ArrowRight","true",0
"S001","VerticalHorizontal",0.12339,-40.5,"stimuli/VerticalHorizontal_-40.500_0.12339.png","A",67,6023427,1.426,"ArrowLeft","true",0
"S001","VerticalHorizontal",0.20298,-31.5,"stimuli/VerticalHorizontal_-31.500_0.20298.png","A",68,6025642,1.662,"ArrowRight","false",1
"S001","VerticalHorizontal",-0.0581,-40.5,"stimuli/VerticalHorizontal_-40.500_-0.0581.png","A",69,6027945,0.963,"ArrowLeft","false",1
"S001","VerticalHorizontal",-0.20298,13.5,"stimuli/VerticalHorizontal_13.5000_-0.20298.png","A",70,6029818,2.64,"ArrowRight","true",0
"S001","VerticalHorizontal",0.3,40.5,"stimuli/VerticalHorizontal_40.5000_0.30000.png","A",71,6033381,0.74,"ArrowLeft","true",0
"S001","VerticalHorizontal",0.0581,31.5,"stimuli/VerticalHorizontal_31.5000_0.05810.png","A",72,6034742,3.862,"ArrowLeft","true",0
"S001","VerticalHorizontal",0.3,22.5,"stimuli/VerticalHorizontal_22.5000_0.30000.png","A",73,6039266,1.188,"ArrowRight","false",1
"S001","VerticalHorizontal",0.0581,40.5,"stimuli/VerticalHorizontal_40.5000_0.05810.png","A",74,6041297,2.443,"ArrowLeft","true",0
"S001","VerticalHorizontal",-0.0581,31.5,"stimuli/VerticalHorizontal_31.5000_-0.0581.png","A",75,6044479,3.674,"ArrowLeft","false",1
"S001","VerticalHorizontal",-0.3,-22.5,"stimuli/VerticalHorizontal_-22.500_-0.3000.png","A",76,6049080,0.704,"ArrowRight","true",0
"S001","VerticalHorizontal",0.3,-22.5,"stimuli/VerticalHorizontal_-22.500_0.30000.png","A",77,6050574,3.713,"ArrowRight","false",1
"S001","VerticalHorizontal",-0.3,-13.5,"stimuli/VerticalHorizontal_-13.500_-0.3000.png","A",78,6055057,0.703,"ArrowLeft","false",1
"S001","VerticalHorizontal",-0.0581,-4.5,"stimuli/VerticalHorizontal_-4.5000_-0.0581.png","A",79,6056477,2.622,"ArrowRight","true",0
"S001","VerticalHorizontal",-0.12339,-31.5,"stimuli/VerticalHorizontal_-31.500_-0.12339.png","A",80,6059925,3.093,"ArrowRight","true",0
