"Participant","Illusion_Type","Illusion_Difference","Illusion_Strength","File","Block","Trial","ISI","RT","Response","Response_Correct","Error"
"S001","MullerLyer",-0.045,-24,"stimuli/MullerLyer_-24.000_-0.0450.png","B",1,206895,0.335,"ArrowDown","arrowdown",0
"S001","MullerLyer",0.37364,30,"stimuli/MullerLyer_30.0000_0.37364.png","B",2,208302,0.319,"ArrowUp","arrowup",0
"S001","MullerLyer",0.37364,-24,"stimuli/MullerLyer_-24.000_0.37364.png","B",3,209479,0.291,"ArrowDown","arrowup",0
"S001","MullerLyer",-0.1337,-6,"stimuli/MullerLyer_-6.0000_-0.1337.png","B",4,210715,0.259,"ArrowUp","arrowdown",0
"S001","MullerLyer",0.24183,-18,"stimuli/MullerLyer_-18.000_0.24183.png","B",5,211936,0.385,"ArrowUp","arrowup",0
"S001","MullerLyer",0.1337,-18,"stimuli/MullerLyer_-18.000_0.13370.png","B",6,213036,0.46,"ArrowDown","arrowup",0
"S001","MullerLyer",0.045,6,"stimuli/MullerLyer_6.00000_0.04500.png","B",7,214484,0.708,"ArrowUp","arrowup",0
"S001","MullerLyer",0.045,12,"stimuli/MullerLyer_12.0000_0.04500.png","B",8,216153,0.225,"ArrowDown","arrowup",0
"S001","MullerLyer",-0.24183,-30,"stimuli/MullerLyer_-30.000_-0.24183.png","B",9,217037,0.409,"ArrowDown","arrowdown",0
"S001","MullerLyer",-0.37364,30,"stimuli/MullerLyer_30.0000_-0.37364.png","B",10,218120,0.337,"ArrowUp","arrowdown",0
"S001","MullerLyer",0.045,-6,"stimuli/MullerLyer_-6.0000_0.04500.png","B",11,219238,0.323,"ArrowDown","arrowup",0
"S001","MullerLyer",-0.24183,-6,"stimuli/MullerLyer_-6.0000_-0.24183.png","B",12,220310,0.411,"ArrowUp","arrowdown",0
"S001","MullerLyer",-0.045,-6,"stimuli/MullerLyer_-6.0000_-0.0450.png","B",13,221342,0.479,"ArrowDown","arrowdown",0
"S001","MullerLyer",0.24183,18,"stimuli/MullerLyer_18.0000_0.24183.png","B",14,222691,0.426,"ArrowUp","arrowup",0
"S001","MullerLyer",0.045,-24,"stimuli/MullerLyer_-24.000_0.04500.png","B",15,223852,0.241,"ArrowUp","arrowup",0
"S001","MullerLyer",0.24183,-12,"stimuli/MullerLyer_-12.000_0.24183.png","B",16,224846,0.124,"ArrowUp","arrowup",0
"S001","MullerLyer",-0.1337,-18,"stimuli/MullerLyer_-18.000_-0.1337.png","B",17,225932,0.148,"ArrowUp","arrowdown",0
"S001","MullerLyer",-0.24183,18,"stimuli/MullerLyer_18.0000_-0.24183.png","B",18,226777,0.247,"ArrowDown","arrowdown",0
"S001","MullerLyer",0.37364,-18,"stimuli/MullerLyer_-18.000_0.37364.png","B",19,228045,0.261,"ArrowDown","arrowup",0
"S001","MullerLyer",0.045,18,"stimuli/MullerLyer_18.0000_0.04500.png","B",20,229319,0.027,"ArrowUp","arrowup",0
"S001","MullerLyer",-0.37364,-24,"stimuli/MullerLyer_-24.000_-0.37364.png","B",21,230327,0.058,"ArrowDown","arrowdown",0
"S001","MullerLyer",0.045,-30,"stimuli/MullerLyer_-30.000_0.04500.png","B",22,231073,0.38,"ArrowUp","arrowup",0
"S001","MullerLyer",-0.24183,24,"stimuli/MullerLyer_24.0000_-0.24183.png","B",23,232554,0.269,"ArrowDown","arrowdown",0
"S001","MullerLyer",-0.24183,12,"stimuli/MullerLyer_12.0000_-0.24183.png","B",24,233803,0.194,"ArrowUp","arrowdown",0
"S001","MullerLyer",0.37364,18,"stimuli/MullerLyer_18.0000_0.37364.png","B",25,234658,0.368,"ArrowUp","arrowup",0
"S001","MullerLyer",0.1337,-6,"stimuli/MullerLyer_-6.0000_0.13370.png","B",26,235913,0.239,"ArrowUp","arrowup",0
"S001","MullerLyer",-0.045,24,"stimuli/MullerLyer_24.0000_-0.0450.png","B",27,237209,0.196,"ArrowDown","arrowdown",0
"S001","MullerLyer",0.24183,-6,"stimuli/MullerLyer_-6.0000_0.24183.png","B",28,238199,0.444,"ArrowUp","arrowup",0
"S001","MullerLyer",0.1337,24,"stimuli/MullerLyer_24.0000_0.13370.png","B",29,239445,0.336,"ArrowUp","arrowup",0
"S001","MullerLyer",-0.24183,-24,"stimuli/MullerLyer_-24.000_-0.24183.png","B",30,240612,0.224,"ArrowUp","arrowdown",0
"S001","MullerLyer",-0.1337,24,"stimuli/MullerLyer_24.0000_-0.1337.png","B",31,241803,0.518,"ArrowDown","arrowdown",0
"S001","MullerLyer",0.37364,-6,"stimuli/MullerLyer_-6.0000_0.37364.png","B",32,243332,0.313,"ArrowDown","arrowup",0
"S001","MullerLyer",-0.24183,-12,"stimuli/MullerLyer_-12.000_-0.24183.png","B",33,244710,0.513,"ArrowDown","arrowdown",0
"S001","MullerLyer",0.37364,-12,"stimuli/MullerLyer_-12.000_0.37364.png","B",34,246250,0.265,"ArrowUp","arrowup",0
"S001","MullerLyer",-0.24183,6,"stimuli/MullerLyer_6.00000_-0.24183.png","B",35,247401,0.213,"ArrowDown","arrowdown",0
"S001","MullerLyer",0.37364,-30,"stimuli/MullerLyer_-30.000_0.37364.png","B",36,248545,0.116,"ArrowUp","arrowup",0
"S001","MullerLyer",0.1337,-12,"stimuli/MullerLyer_-12.000_0.13370.png","B",37,249456,0.224,"ArrowDown","arrowup",0
"S001","MullerLyer",-0.1337,-30,"stimuli/MullerLyer_-30.000_-0.1337.png","B",38,250624,0.033,"ArrowUp","arrowdown",0
"S001","MullerLyer",0.24183,6,"stimuli/MullerLyer_6.00000_0.24183.png","B",39,251409,0.235,"ArrowUp","arrowup",0
"S001","MullerLyer",-0.37364,-30,"stimuli/MullerLyer_-30.000_-0.37364.png","B",40,252662,0.443,"ArrowUp","arrowdown",0
"S001","MullerLyer",-0.045,-18,"stimuli/MullerLyer_-18.000_-0.0450.png","B",41,253944,0.214,"ArrowDown","arrowdown",0
"S001","MullerLyer",-0.045,-12,"stimuli/MullerLyer_-12.000_-0.0450.png","B",42,255259,0.302,"ArrowDown","arrowdown",0
"S001","MullerLyer",-0.045,12,"stimuli/MullerLyer_12.0000_-0.0450.png","B",43,256181,0.266,"ArrowUp","arrowdown",0
"S001","MullerLyer",0.1337,6,"stimuli/MullerLyer_6.00000_0.13370.png","B",44,257206,0.268,"ArrowDown","arrowup",0
"S001","MullerLyer",-0.37364,6,"stimuli/MullerLyer_6.00000_-0.37364.png","B",45,258527,0.262,"ArrowUp","arrowdown",0
"S001","MullerLyer",-0.37364,-6,"stimuli/MullerLyer_-6.0000_-0.37364.png","B",46,259640,0.139,"ArrowDown","arrowdown",0
"S001","MullerLyer",0.1337,18,"stimuli/MullerLyer_18.0000_0.13370.png","B",47,260416,0.262,"ArrowDown","arrowup",0
"S001","MullerLyer",-0.1337,6,"stimuli/MullerLyer_6.00000_-0.1337.png","B",48,261323,0.481,"ArrowUp","arrowdown",0
"S001","MullerLyer",-0.045,30,"stimuli/MullerLyer_30.0000_-0.0450.png","B",49,262899,0.873,"ArrowUp","arrowdown",0
"S001","MullerLyer",-0.24183,30,"stimuli/MullerLyer_30.0000_-0.24183.png","B",50,264634,8.75,"ArrowDown","arrowdown",0
"S001","MullerLyer",0.1337,30,"stimuli/MullerLyer_30.0000_0.13370.png","B",51,274170,0.439,"ArrowDown","arrowup",0
"S001","MullerLyer",-0.37364,-18,"stimuli/MullerLyer_-18.000_-0.37364.png","B",52,275716,0.717,"ArrowDown","arrowdown",0
"S001","MullerLyer",0.1337,-30,"stimuli/MullerLyer_-30.000_0.13370.png","B",53,277240,0.52,"ArrowDown","arrowup",0
"S001","MullerLyer",0.37364,24,"stimuli/MullerLyer_24.0000_0.37364.png","B",54,278839,0.118,"ArrowDown","arrowup",0
"S001","MullerLyer",-0.1337,30,"stimuli/MullerLyer_30.0000_-0.1337.png","B",55,279903,0.323,"ArrowDown","arrowdown",0
"S001","MullerLyer",-0.1337,-12,"stimuli/MullerLyer_-12.000_-0.1337.png","B",56,280944,0.235,"ArrowUp","arrowdown",0
"S001","MullerLyer",-0.37364,12,"stimuli/MullerLyer_12.0000_-0.37364.png","B",57,282035,0.205,"ArrowDown","arrowdown",0
"S001","MullerLyer",-0.1337,-24,"stimuli/MullerLyer_-24.000_-0.1337.png","B",58,282857,0.242,"ArrowUp","arrowdown",0
"S001","MullerLyer",0.24183,12,"stimuli/MullerLyer_12.0000_0.24183.png","B",59,283925,0.072,"ArrowUp","arrowup",0
"S001","MullerLyer",0.045,30,"stimuli/MullerLyer_30.0000_0.04500.png","B",60,284901,0.566,"ArrowUp","arrowup",0
"S001","MullerLyer",0.1337,-24,"stimuli/MullerLyer_-24.000_0.13370.png","B",61,286489,0.242,"ArrowDown","arrowup",0
"S001","MullerLyer",-0.045,6,"stimuli/MullerLyer_6.00000_-0.0450.png","B",62,287423,0.432,"ArrowUp","arrowdown",0
"S001","MullerLyer",-0.1337,12,"stimuli/MullerLyer_12.0000_-0.1337.png","B",63,288581,0.248,"ArrowUp","arrowdown",0
"S001","MullerLyer",0.045,-12,"stimuli/MullerLyer_-12.000_0.04500.png","B",64,289857,0.382,"ArrowDown","arrowup",0
"S001","MullerLyer",-0.37364,18,"stimuli/MullerLyer_18.0000_-0.37364.png","B",65,290926,0.299,"ArrowUp","arrowdown",0
"S001","MullerLyer",0.37364,12,"stimuli/MullerLyer_12.0000_0.37364.png","B",66,292292,0.206,"ArrowUp","arrowup",0
"S001","MullerLyer",-0.045,-30,"stimuli/MullerLyer_-30.000_-0.0450.png","B",67,293300,0.551,"ArrowDown","arrowdown",0
"S001","MullerLyer",0.1337,12,"stimuli/MullerLyer_12.0000_0.13370.png","B",68,294807,0.174,"ArrowDown","arrowup",0
"S001","MullerLyer",0.24183,24,"stimuli/MullerLyer_24.0000_0.24183.png","B",69,295942,1.022,"ArrowUp","arrowup",0
"S001","MullerLyer",0.24183,-24,"stimuli/MullerLyer_-24.000_0.24183.png","B",70,297785,0.322,"ArrowUp","arrowup",0
"S001","MullerLyer",-0.1337,18,"stimuli/MullerLyer_18.0000_-0.1337.png","B",71,298763,0.553,"ArrowUp","arrowdown",0
"S001","MullerLyer",0.24183,-30,"stimuli/MullerLyer_-30.000_0.24183.png","B",72,300098,0.056,"ArrowUp","arrowup",0
"S001","MullerLyer",-0.37364,24,"stimuli/MullerLyer_24.0000_-0.37364.png","B",73,300821,0.505,"ArrowUp","arrowdown",0
"S001","MullerLyer",0.37364,6,"stimuli/MullerLyer_6.00000_0.37364.png","B",74,302071,0.2,"ArrowDown","arrowup",0
"S001","MullerLyer",-0.045,18,"stimuli/MullerLyer_18.0000_-0.0450.png","B",75,303377,0.668,"ArrowDown","arrowdown",0
"S001","MullerLyer",-0.37364,-12,"stimuli/MullerLyer_-12.000_-0.37364.png","B",76,304825,0.45,"ArrowDown","arrowdown",0
"S001","MullerLyer",-0.24183,-18,"stimuli/MullerLyer_-18.000_-0.24183.png","B",77,306209,0.542,"ArrowUp","arrowdown",0
"S001","MullerLyer",0.24183,30,"stimuli/MullerLyer_30.0000_0.24183.png","B",78,307416,0.657,"ArrowDown","arrowup",0
"S001","MullerLyer",0.045,-18,"stimuli/MullerLyer_-18.000_0.04500.png","B",79,308992,0.532,"ArrowUp","arrowup",0
"S001","MullerLyer",0.045,24,"stimuli/MullerLyer_24.0000_0.04500.png","B",80,310600,0.167,"ArrowUp","arrowup",0
"S001","Ebbinghaus",-0.41515,-0.9,"stimuli/Ebbinghaus_-0.9000_-0.41515.png","B",1,316009,0.276,"ArrowRight","arrowright",0
"S001","Ebbinghaus",0.2687,-1.5,"stimuli/Ebbinghaus_-1.5000_0.26870.png","B",2,317250,0.246,"ArrowLeft","arrowleft",0
"S001","Ebbinghaus",-0.41515,0.6,"stimuli/Ebbinghaus_0.60000_-0.41515.png","B",3,318109,0.315,"ArrowLeft","arrowright",0
"S001","Ebbinghaus",-0.14856,-1.5,"stimuli/Ebbinghaus_-1.5000_-0.14856.png","B",4,319315,0.238,"ArrowRight","arrowright",0
"S001","Ebbinghaus",-0.2687,-1.2,"stimuli/Ebbinghaus_-1.2000_-0.2687.png","B",5,320460,0.031,"ArrowLeft","arrowright",0
"S001","Ebbinghaus",0.05,-1.2,"stimuli/Ebbinghaus_-1.2000_0.05000.png","B",6,321354,0.012,"ArrowRight","arrowleft",0
"S001","Ebbinghaus",0.05,-0.3,"stimuli/Ebbinghaus_-0.3000_0.05000.png","B",7,322234,0.234,"ArrowLeft","arrowleft",0
"S001","Ebbinghaus",0.41515,-0.3,"stimuli/Ebbinghaus_-0.3000_0.41515.png","B",8,323466,0.061,"ArrowLeft","arrowleft",0
"S001","Ebbinghaus",0.41515,0.3,"stimuli/Ebbinghaus_0.30000_0.41515.png","B",9,324583,0.038,"ArrowLeft","arrowleft",0
"S001","Ebbinghaus",-0.05,-1.2,"stimuli/Ebbinghaus_-1.2000_-0.0500.png","B",10,325716,0.529,"ArrowRight","arrowright",0
"S001","Ebbinghaus",-0.14856,-0.3,"stimuli/Ebbinghaus_-0.3000_-0.14856.png","B",11,326961,0.288,"ArrowLeft","arrowright",0
"S001","Ebbinghaus",-0.05,-1.5,"stimuli/Ebbinghaus_-1.5000_-0.0500.png","B",12,328014,0.367,"ArrowRight","arrowright",0
"S001","Ebbinghaus",0.14856,-0.6,"stimuli/Ebbinghaus_-0.6000_0.14856.png","B",13,329051,0.212,"ArrowLeft","arrowleft",0
"S001","Ebbinghaus",-0.2687,0.6,"stimuli/Ebbinghaus_0.60000_-0.2687.png","B",14,330362,0.305,"ArrowLeft","arrowright",0
"S001","Ebbinghaus",0.14856,1.2,"stimuli/Ebbinghaus_1.20000_0.14856.png","B",15,331401,0.318,"ArrowRight","arrowleft",0
"S001","Ebbinghaus",-0.14856,0.6,"stimuli/Ebbinghaus_0.60000_-0.14856.png","B",16,332674,0.289,"ArrowLeft","arrowright",0
"S001","Ebbinghaus",-0.41515,-1.2,"stimuli/Ebbinghaus_-1.2000_-0.41515.png","B",17,333774,0.464,"ArrowLeft","arrowright",0
"S001","Ebbinghaus",0.05,0.6,"stimuli/Ebbinghaus_0.60000_0.05000.png","B",18,335174,0.162,"ArrowRight","arrowleft",0
"S001","Ebbinghaus",-0.2687,-0.9,"stimuli/Ebbinghaus_-0.9000_-0.2687.png","B",19,336065,0.328,"ArrowRight","arrowright",0
"S001","Ebbinghaus",0.05,0.3,"stimuli/Ebbinghaus_0.30000_0.05000.png","B",20,337430,0.257,"ArrowRight","arrowleft",0
"S001","Ebbinghaus",0.2687,-0.3,"stimuli/Ebbinghaus_-0.3000_0.26870.png","B",21,338702,0.217,"ArrowLeft","arrowleft",0
"S001","Ebbinghaus",-0.2687,-1.5,"stimuli/Ebbinghaus_-1.5000_-0.2687.png","B",22,339659,0.285,"ArrowRight","arrowright",0
"S001","Ebbinghaus",-0.2687,0.9,"stimuli/Ebbinghaus_0.90000_-0.2687.png","B",23,340774,0.395,"ArrowRight","arrowright",0
"S001","Ebbinghaus",0.41515,-0.9,"stimuli/Ebbinghaus_-0.9000_0.41515.png","B",24,342183,0.938,"ArrowLeft","arrowleft",0
"S001","Ebbinghaus",-0.14856,0.9,"stimuli/Ebbinghaus_0.90000_-0.14856.png","B",25,343745,1.419,"ArrowLeft","arrowright",0
"S001","Ebbinghaus",-0.2687,-0.3,"stimuli/Ebbinghaus_-0.3000_-0.2687.png","B",26,345993,0.536,"ArrowRight","arrowright",0
"S001","Ebbinghaus",-0.05,0.3,"stimuli/Ebbinghaus_0.30000_-0.0500.png","B",27,347495,0.536,"ArrowRight","arrowright",0
"S001","Ebbinghaus",0.41515,0.6,"stimuli/Ebbinghaus_0.60000_0.41515.png","B",28,349014,0.301,"ArrowLeft","arrowleft",0
"S001","Ebbinghaus",0.05,1.5,"stimuli/Ebbinghaus_1.50000_0.05000.png","B",29,350188,0.382,"ArrowLeft","arrowleft",0
"S001","Ebbinghaus",-0.14856,-0.6,"stimuli/Ebbinghaus_-0.6000_-0.14856.png","B",30,351547,0.272,"ArrowLeft","arrowright",0
"S001","Ebbinghaus",0.41515,1.5,"stimuli/Ebbinghaus_1.50000_0.41515.png","B",31,352817,0.338,"ArrowRight","arrowleft",0
"S001","Ebbinghaus",0.41515,-1.5,"stimuli/Ebbinghaus_-1.5000_0.41515.png","B",32,354150,0.597,"ArrowRight","arrowleft",0
"S001","Ebbinghaus",0.2687,-0.6,"stimuli/Ebbinghaus_-0.6000_0.26870.png","B",33,355483,0.369,"ArrowLeft","arrowleft",0
"S001","Ebbinghaus",0.14856,-1.5,"stimuli/Ebbinghaus_-1.5000_0.14856.png","B",34,356607,0.237,"ArrowLeft","arrowleft",0
"S001","Ebbinghaus",0.14856,0.3,"stimuli/Ebbinghaus_0.30000_0.14856.png","B",35,357772,0.472,"ArrowLeft","arrowleft",0
"S001","Ebbinghaus",0.14856,-0.3,"stimuli/Ebbinghaus_-0.3000_0.14856.png","B",36,359074,0.265,"ArrowRight","arrowleft",0
"S001","Ebbinghaus",-0.2687,0.3,"stimuli/Ebbinghaus_0.30000_-0.2687.png","B",37,360085,0.259,"ArrowLeft","arrowright",0
"S001","Ebbinghaus",-0.41515,0.3,"stimuli/Ebbinghaus_0.30000_-0.41515.png","B",38,361135,0.257,"ArrowLeft","arrowright",0
"S001","Ebbinghaus",0.2687,0.3,"stimuli/Ebbinghaus_0.30000_0.26870.png","B",39,362256,0.182,"ArrowLeft","arrowleft",0
"S001","Ebbinghaus",-0.41515,-0.3,"stimuli/Ebbinghaus_-0.3000_-0.41515.png","B",40,363265,0.466,"ArrowLeft","arrowright",0
"S001","Ebbinghaus",-0.2687,1.2,"stimuli/Ebbinghaus_1.20000_-0.2687.png","B",41,364595,0.55,"ArrowRight","arrowright",0
"S001","Ebbinghaus",0.05,-0.9,"stimuli/Ebbinghaus_-0.9000_0.05000.png","B",42,365882,0.254,"ArrowRight","arrowleft",0
"S001","Ebbinghaus",-0.14856,-1.2,"stimuli/Ebbinghaus_-1.2000_-0.14856.png","B",43,367231,0.936,"ArrowLeft","arrowright",0
"S001","Ebbinghaus",0.2687,-0.9,"stimuli/Ebbinghaus_-0.9000_0.26870.png","B",44,368945,0.408,"ArrowLeft","arrowleft",0
"S001","Ebbinghaus",0.05,-0.6,"stimuli/Ebbinghaus_-0.6000_0.05000.png","B",45,370310,0.173,"ArrowLeft","arrowleft",0
"S001","Ebbinghaus",-0.41515,1.2,"stimuli/Ebbinghaus_1.20000_-0.41515.png","B",46,371150,0.289,"ArrowLeft","arrowright",0
"S001","Ebbinghaus",0.41515,0.9,"stimuli/Ebbinghaus_0.90000_0.41515.png","B",47,372189,0.237,"ArrowRight","arrowleft",0
"S001","Ebbinghaus",-0.05,0.9,"stimuli/Ebbinghaus_0.90000_-0.0500.png","B",48,373065,0.365,"ArrowLeft","arrowright",0
"S001","Ebbinghaus",0.41515,-0.6,"stimuli/Ebbinghaus_-0.6000_0.41515.png","B",49,374205,0.324,"ArrowLeft","arrowleft",0
"S001","Ebbinghaus",0.41515,1.2,"stimuli/Ebbinghaus_1.20000_0.41515.png","B",50,375499,0.14,"ArrowLeft","arrowleft",0
"S001","Ebbinghaus",-0.2687,-0.6,"stimuli/Ebbinghaus_-0.6000_-0.2687.png","B",51,376606,0.349,"ArrowLeft","arrowright",0
"S001","Ebbinghaus",-0.14856,-0.9,"stimuli/Ebbinghaus_-0.9000_-0.14856.png","B",52,377640,0.396,"ArrowLeft","arrowright",0
"S001","Ebbinghaus",0.2687,0.9,"stimuli/Ebbinghaus_0.90000_0.26870.png","B",53,379010,0.168,"ArrowRight","arrowleft",0
"S001","Ebbinghaus",0.14856,1.5,"stimuli/Ebbinghaus_1.50000_0.14856.png","B",54,379912,0.168,"ArrowLeft","arrowleft",0
"S001","Ebbinghaus",0.14856,0.6,"stimuli/Ebbinghaus_0.60000_0.14856.png","B",55,380866,0.24,"ArrowLeft","arrowleft",0
"S001","Ebbinghaus",0.2687,0.6,"stimuli/Ebbinghaus_0.60000_0.26870.png","B",56,381981,0.352,"ArrowLeft","arrowleft",0
"S001","Ebbinghaus",-0.41515,0.9,"stimuli/Ebbinghaus_0.90000_-0.41515.png","B",57,383099,0.794,"ArrowRight","arrowright",0
"S001","Ebbinghaus",-0.05,1.5,"stimuli/Ebbinghaus_1.50000_-0.0500.png","B",58,384865,0.459,"ArrowLeft","arrowright",0
"S001","Ebbinghaus",0.14856,-1.2,"stimuli/Ebbinghaus_-1.2000_0.14856.png","B",59,386388,0.488,"ArrowLeft","arrowleft",0
"S001","Ebbinghaus",0.41515,-1.2,"stimuli/Ebbinghaus_-1.2000_0.41515.png","B",60,387673,0.695,"ArrowLeft","arrowleft",0
"S001","Ebbinghaus",0.2687,1.2,"stimuli/Ebbinghaus_1.20000_0.26870.png","B",61,389405,0.248,"ArrowLeft","arrowleft",0
"S001","Ebbinghaus",-0.14856,1.2,"stimuli/Ebbinghaus_1.20000_-0.14856.png","B",62,390657,0.285,"ArrowLeft","arrowright",0
"S001","Ebbinghaus",-0.05,-0.3,"stimuli/Ebbinghaus_-0.3000_-0.0500.png","B",63,391814,0.346,"ArrowLeft","arrowright",0
"S001","Ebbinghaus",-0.41515,1.5,"stimuli/Ebbinghaus_1.50000_-0.41515.png","B",64,392860,0.35,"ArrowLeft","arrowright",0
"S001","Ebbinghaus",0.14856,-0.9,"stimuli/Ebbinghaus_-0.9000_0.14856.png","B",65,394289,0.305,"ArrowRight","arrowleft",0
"S001","Ebbinghaus",-0.14856,0.3,"stimuli/Ebbinghaus_0.30000_-0.14856.png","B",66,395680,0.272,"ArrowLeft","arrowright",0
"S001","Ebbinghaus",0.05,-1.5,"stimuli/Ebbinghaus_-1.5000_0.05000.png","B",67,396665,0.713,"ArrowLeft","arrowleft",0
"S001","Ebbinghaus",0.14856,0.9,"stimuli/Ebbinghaus_0.90000_0.14856.png","B",68,398106,0.252,"ArrowLeft","arrowleft",0
"S001","Ebbinghaus",0.05,1.2,"stimuli/Ebbinghaus_1.20000_0.05000.png","B",69,398969,0.277,"ArrowRight","arrowleft",0
"S001","Ebbinghaus",0.05,0.9,"stimuli/Ebbinghaus_0.90000_0.05000.png","B",70,399900,0.15,"ArrowLeft","arrowleft",0
"S001","Ebbinghaus",0.2687,1.5,"stimuli/Ebbinghaus_1.50000_0.26870.png","B",71,400849,0.066,"ArrowRight","arrowleft",0
"S001","Ebbinghaus",-0.05,-0.6,"stimuli/Ebbinghaus_-0.6000_-0.0500.png","B",72,401947,0.32,"ArrowLeft","arrowright",0
"S001","Ebbinghaus",-0.05,0.6,"stimuli/Ebbinghaus_0.60000_-0.0500.png","B",73,402969,0.251,"ArrowRight","arrowright",0
"S001","Ebbinghaus",-0.2687,1.5,"stimuli/Ebbinghaus_1.50000_-0.2687.png","B",74,404302,0.435,"ArrowLeft","arrowright",0
"S001","Ebbinghaus",-0.14856,1.5,"stimuli/Ebbinghaus_1.50000_-0.14856.png","B",75,405347,0.307,"ArrowRight","arrowright",0
"S001","Ebbinghaus",-0.05,1.2,"stimuli/Ebbinghaus_1.20000_-0.0500.png","B",76,406599,0.176,"ArrowLeft","arrowright",0
"S001","Ebbinghaus",-0.41515,-0.6,"stimuli/Ebbinghaus_-0.6000_-0.41515.png","B",77,407754,0.171,"ArrowRight","arrowright",0
"S001","Ebbinghaus",-0.05,-0.9,"stimuli/Ebbinghaus_-0.9000_-0.0500.png","B",78,408774,0.007,"ArrowLeft","arrowright",0
"S001","Ebbinghaus",0.2687,-1.2,"stimuli/Ebbinghaus_-1.2000_0.26870.png","B",79,409749,0.292,"ArrowLeft","arrowleft",0
"S001","Ebbinghaus",-0.41515,-1.5,"stimuli/Ebbinghaus_-1.5000_-0.41515.png","B",80,411039,0.275,"ArrowRight","arrowright",0
"S001","VerticalHorizontal",0.03,27,"stimuli/VerticalHorizontal_27.0000_0.03000.png","B",1,438805,0.434,"ArrowRight","arrowleft",0
"S001","VerticalHorizontal",-0.08913,27,"stimuli/VerticalHorizontal_27.0000_-0.08913.png","B",2,440264,0.294,"ArrowRight","arrowright",0
"S001","VerticalHorizontal",0.24909,9,"stimuli/VerticalHorizontal_9.00000_0.24909.png","B",3,441570,0.32,"ArrowRight","arrowleft",0
"S001","VerticalHorizontal",-0.08913,18,"stimuli/VerticalHorizontal_18.0000_-0.08913.png","B",4,442964,45.208,"ArrowRight","arrowright",0
"S001","VerticalHorizontal",0.03,45,"stimuli/VerticalHorizontal_45.0000_0.03000.png","B",5,489198,0.158,"ArrowRight","arrowleft",0
"S001","VerticalHorizontal",-0.03,-45,"stimuli/VerticalHorizontal_-45.000_-0.0300.png","B",6,490125,0.503,"ArrowRight","arrowright",0
"S001","VerticalHorizontal",0.24909,45,"stimuli/VerticalHorizontal_45.0000_0.24909.png","B",7,491610,0.594,"ArrowRight","arrowleft",0
"S001","VerticalHorizontal",-0.16122,-45,"stimuli/VerticalHorizontal_-45.000_-0.16122.png","B",8,493286,0.058,"ArrowRight","arrowright",0
"S001","VerticalHorizontal",-0.24909,18,"stimuli/VerticalHorizontal_18.0000_-0.24909.png","B",9,494083,0.345,"ArrowRight","arrowright",0
"S001","VerticalHorizontal",0.24909,-18,"stimuli/VerticalHorizontal_-18.000_0.24909.png","B",10,495245,0.103,"ArrowRight","arrowleft",0
"S001","VerticalHorizontal",0.08913,-36,"stimuli/VerticalHorizontal_-36.000_0.08913.png","B",11,496029,0.464,"ArrowRight","arrowleft",0
"S001","VerticalHorizontal",-0.16122,18,"stimuli/VerticalHorizontal_18.0000_-0.16122.png","B",12,497562,0.292,"ArrowRight","arrowright",0
"S001","VerticalHorizontal",-0.24909,9,"stimuli/VerticalHorizontal_9.00000_-0.24909.png","B",13,498608,0.437,"ArrowRight","arrowright",0
"S001","VerticalHorizontal",-0.03,27,"stimuli/VerticalHorizontal_27.0000_-0.0300.png","B",14,499708,0.393,"ArrowRight","arrowright",0
"S001","VerticalHorizontal",0.03,9,"stimuli/VerticalHorizontal_9.00000_0.03000.png","B",15,501108,0.136,"ArrowRight","arrowleft",0
"S001","VerticalHorizontal",0.16122,36,"stimuli/VerticalHorizontal_36.0000_0.16122.png","B",16,502169,0.295,"ArrowRight","arrowleft",0
"S001","VerticalHorizontal",0.03,-45,"stimuli/VerticalHorizontal_-45.000_0.03000.png","B",17,503419,0.123,"ArrowRight","arrowleft",0
"S001","VerticalHorizontal",-0.03,-9,"stimuli/VerticalHorizontal_-9.0000_-0.0300.png","B",18,504159,0.396,"ArrowRight","arrowright",0
"S001","VerticalHorizontal",-0.08913,-18,"stimuli/VerticalHorizontal_-18.000_-0.08913.png","B",19,505566,0.048,"ArrowRight","arrowright",0
"S001","VerticalHorizontal",-0.08913,-27,"stimuli/VerticalHorizontal_-27.000_-0.08913.png","B",20,506561,0.442,"ArrowRight","arrowright",0
"S001","VerticalHorizontal",0.08913,9,"stimuli/VerticalHorizontal_9.00000_0.08913.png","B",21,507673,0.287,"ArrowRight","arrowleft",0
"S001","VerticalHorizontal",0.03,-18,"stimuli/VerticalHorizontal_-18.000_0.03000.png","B",22,509001,0.138,"ArrowRight","arrowleft",0
"S001","VerticalHorizontal",0.08913,-45,"stimuli/VerticalHorizontal_-45.000_0.08913.png","B",23,510138,0.518,"ArrowRight","arrowleft",0
"S001","VerticalHorizontal",-0.08913,-36,"stimuli/VerticalHorizontal_-36.000_-0.08913.png","B",24,511512,2.149,"ArrowRight","arrowright",0
"S001","VerticalHorizontal",-0.08913,-9,"stimuli/VerticalHorizontal_-9.0000_-0.08913.png","B",25,514621,0.048,"ArrowRight","arrowright",0
"S001","VerticalHorizontal",0.16122,-18,"stimuli/VerticalHorizontal_-18.000_0.16122.png","B",26,515520,0.489,"ArrowRight","arrowleft",0
"S001","VerticalHorizontal",-0.03,45,"stimuli/VerticalHorizontal_45.0000_-0.0300.png","B",27,516861,0.546,"ArrowRight","arrowright",0
"S001","VerticalHorizontal",0.03,-9,"stimuli/VerticalHorizontal_-9.0000_0.03000.png","B",28,518178,1.293,"ArrowRight","arrowleft",0
"S001","VerticalHorizontal",0.03,-27,"stimuli/VerticalHorizontal_-27.000_0.03000.png","B",29,520527,0.395,"ArrowRight","arrowleft",0
"S001","VerticalHorizontal",0.03,18,"stimuli/VerticalHorizontal_18.0000_0.03000.png","B",30,521836,0.286,"ArrowRight","arrowleft",0
"S001","VerticalHorizontal",-0.24909,36,"stimuli/VerticalHorizontal_36.0000_-0.24909.png","B",31,522749,0.629,"ArrowRight","arrowright",0
"S001","VerticalHorizontal",0.24909,36,"stimuli/VerticalHorizontal_36.0000_0.24909.png","B",32,524376,0.541,"ArrowRight","arrowleft",0
"S001","VerticalHorizontal",0.08913,-9,"stimuli/VerticalHorizontal_-9.0000_0.08913.png","B",33,525820,0.579,"ArrowRight","arrowleft",0
"S001","VerticalHorizontal",0.08913,18,"stimuli/VerticalHorizontal_18.0000_0.08913.png","B",34,527178,0.326,"ArrowRight","arrowleft",0
"S001","VerticalHorizontal",-0.03,-27,"stimuli/VerticalHorizontal_-27.000_-0.0300.png","B",35,528484,0.101,"ArrowRight","arrowright",0
"S001","VerticalHorizontal",0.24909,-45,"stimuli/VerticalHorizontal_-45.000_0.24909.png","B",36,529508,0.359,"ArrowRight","arrowleft",0
"S001","VerticalHorizontal",0.16122,-27,"stimuli/VerticalHorizontal_-27.000_0.16122.png","B",37,530895,0.079,"ArrowRight","arrowleft",0
"S001","VerticalHorizontal",0.08913,36,"stimuli/VerticalHorizontal_36.0000_0.08913.png","B",38,531811,0.068,"ArrowRight","arrowleft",0
"S001","VerticalHorizontal",-0.03,9,"stimuli/VerticalHorizontal_9.00000_-0.0300.png","B",39,532727,0.022,"ArrowRight","arrowright",0
"S001","VerticalHorizontal",-0.24909,-18,"stimuli/VerticalHorizontal_-18.000_-0.24909.png","B",40,533429,0.323,"ArrowRight","arrowright",0
"S001","VerticalHorizontal",0.16122,27,"stimuli/VerticalHorizontal_27.0000_0.16122.png","B",41,534714,0.511,"ArrowRight","arrowleft",0
"S001","VerticalHorizontal",0.24909,18,"stimuli/VerticalHorizontal_18.0000_0.24909.png","B",42,536227,0.407,"ArrowRight","arrowleft",0
"S001","VerticalHorizontal",-0.03,36,"stimuli/VerticalHorizontal_36.0000_-0.0300.png","B",43,537741,0.14,"ArrowRight","arrowright",0
"S001","VerticalHorizontal",0.03,36,"stimuli/VerticalHorizontal_36.0000_0.03000.png","B",44,538883,0.035,"ArrowRight","arrowleft",0
"S001","VerticalHorizontal",-0.16122,-27,"stimuli/VerticalHorizontal_-27.000_-0.16122.png","B",45,539820,0.232,"ArrowRight","arrowright",0
"S001","VerticalHorizontal",-0.03,18,"stimuli/VerticalHorizontal_18.0000_-0.0300.png","B",46,540953,0.049,"ArrowRight","arrowright",0
"S001","VerticalHorizontal",-0.24909,45,"stimuli/VerticalHorizontal_45.0000_-0.24909.png","B",47,541934,0.414,"ArrowRight","arrowright",0
"S001","VerticalHorizontal",-0.08913,9,"stimuli/VerticalHorizontal_9.00000_-0.08913.png","B",48,543264,0.623,"ArrowRight","arrowright",0
"S001","VerticalHorizontal",0.08913,-18,"stimuli/VerticalHorizontal_-18.000_0.08913.png","B",49,544869,0.469,"ArrowRight","arrowleft",0
"S001","VerticalHorizontal",-0.03,-18,"stimuli/VerticalHorizontal_-18.000_-0.0300.png","B",50,546161,0.229,"ArrowRight","arrowright",0
"S001","VerticalHorizontal",-0.24909,27,"stimuli/VerticalHorizontal_27.0000_-0.24909.png","B",51,547062,7.455,"ArrowRight","arrowright",0
"S001","VerticalHorizontal",0.24909,27,"stimuli/VerticalHorizontal_27.0000_0.24909.png","B",52,555334,0.213,"ArrowRight","arrowleft",0
"S001","VerticalHorizontal",-0.24909,-36,"stimuli/VerticalHorizontal_-36.000_-0.24909.png","B",53,556294,0.016,"ArrowRight","arrowright",0
"S001","VerticalHorizontal",-0.16122,-36,"stimuli/VerticalHorizontal_-36.000_-0.16122.png","B",54,556951,0.291,"ArrowRight","arrowright",0
"S001","VerticalHorizontal",0.16122,-45,"stimuli/VerticalHorizontal_-45.000_0.16122.png","B",55,558084,0.091,"ArrowRight","arrowleft",0
"S001","VerticalHorizontal",0.08913,-27,"stimuli/VerticalHorizontal_-27.000_0.08913.png","B",56,558899,0.088,"ArrowRight","arrowleft",0
"S001","VerticalHorizontal",-0.16122,-9,"stimuli/VerticalHorizontal_-9.0000_-0.16122.png","B",57,559787,0.057,"ArrowRight","arrowright",0
"S001","VerticalHorizontal",-0.16122,27,"stimuli/VerticalHorizontal_27.0000_-0.16122.png","B",58,560839,1.103,"ArrowRight","arrowright",0
"S001","VerticalHorizontal",-0.16122,36,"stimuli/VerticalHorizontal_36.0000_-0.16122.png","B",59,562687,0.295,"ArrowRight","arrowright",0
"S001","VerticalHorizontal",-0.24909,-9,"stimuli/VerticalHorizontal_-9.0000_-0.24909.png","B",60,563820,0.369,"ArrowRight","arrowright",0
"S001","VerticalHorizontal",0.16122,-36,"stimuli/VerticalHorizontal_-36.000_0.16122.png","B",61,565060,0.095,"ArrowRight","arrowleft",0
"S001","VerticalHorizontal",-0.24909,-45,"stimuli/VerticalHorizontal_-45.000_-0.24909.png","B",62,566007,0.922,"ArrowRight","arrowright",0
"S001","VerticalHorizontal",-0.16122,9,"stimuli/VerticalHorizontal_9.00000_-0.16122.png","B",63,567760,0.733,"ArrowRight","arrowright",0
"S001","VerticalHorizontal",0.03,-36,"stimuli/VerticalHorizontal_-36.000_0.03000.png","B",64,569147,1.072,"ArrowRight","arrowleft",0
"S001","VerticalHorizontal",-0.08913,36,"stimuli/VerticalHorizontal_36.0000_-0.08913.png","B",65,571227,0.717,"ArrowRight","arrowright",0
"S001","VerticalHorizontal",-0.24909,-27,"stimuli/VerticalHorizontal_-27.000_-0.24909.png","B",66,572776,0.399,"ArrowRight","arrowright",0
"S001","VerticalHorizontal",0.16122,18,"stimuli/VerticalHorizontal_18.0000_0.16122.png","B",67,573806,0.112,"ArrowRight","arrowleft",0
"S001","VerticalHorizontal",-0.08913,45,"stimuli/VerticalHorizontal_45.0000_-0.08913.png","B",68,574708,0.201,"ArrowRight","arrowright",0
"S001","VerticalHorizontal",-0.03,-36,"stimuli/VerticalHorizontal_-36.000_-0.0300.png","B",69,575767,0.686,"ArrowRight","arrowright",0
"S001","VerticalHorizontal",0.24909,-9,"stimuli/VerticalHorizontal_-9.0000_0.24909.png","B",70,577359,0.885,"ArrowRight","arrowleft",0
"S001","VerticalHorizontal",0.24909,-36,"stimuli/VerticalHorizontal_-36.000_0.24909.png","B",71,578875,0.212,"ArrowRight","arrowleft",0
"S001","VerticalHorizontal",-0.16122,45,"stimuli/VerticalHorizontal_45.0000_-0.16122.png","B",72,579926,0.067,"ArrowRight","arrowright",0
"S001","VerticalHorizontal",-0.08913,-45,"stimuli/VerticalHorizontal_-45.000_-0.08913.png","B",73,580967,0.752,"ArrowRight","arrowright",0
"S001","VerticalHorizontal",0.16122,45,"stimuli/VerticalHorizontal_45.0000_0.16122.png","B",74,582427,0.212,"ArrowRight","arrowleft",0
"S001","VerticalHorizontal",0.16122,9,"stimuli/VerticalHorizontal_9.00000_0.16122.png","B",75,583708,0.668,"ArrowLeft","arrowleft",0
"S001","VerticalHorizontal",0.08913,45,"stimuli/VerticalHorizontal_45.0000_0.08913.png","B",76,585399,0.627,"ArrowLeft","arrowleft",0
"S001","VerticalHorizontal",0.24909,-27,"stimuli/VerticalHorizontal_-27.000_0.24909.png","B",77,587049,0.739,"ArrowRight","arrowleft",0
"S001","VerticalHorizontal",0.16122,-9,"stimuli/VerticalHorizontal_-9.0000_0.16122.png","B",78,588784,0.902,"ArrowRight","arrowleft",0
"S001","VerticalHorizontal",0.08913,27,"stimuli/VerticalHorizontal_27.0000_0.08913.png","B",79,590343,0.144,"ArrowLeft","arrowleft",0
"S001","VerticalHorizontal",-0.16122,-18,"stimuli/VerticalHorizontal_-18.000_-0.16122.png","B",80,591275,0.121,"ArrowRight","arrowright",0
"S001","MullerLyer",-0.45,3,"stimuli/MullerLyer_3.00000_-0.4500.png","A",1,662379,0.968,"ArrowDown","arrowdown",0
"S001","MullerLyer",0.18509,-21,"stimuli/MullerLyer_-21.000_0.18509.png","A",2,664266,0.356,"ArrowDown","arrowup",0
"S001","MullerLyer",0.30447,27,"stimuli/MullerLyer_27.0000_0.30447.png","A",3,665457,0.519,"ArrowDown","arrowup",0
"S001","MullerLyer",0.45,-9,"stimuli/MullerLyer_-9.0000_0.45000.png","A",4,666624,0.397,"ArrowDown","arrowup",0
"S001","MullerLyer",0.45,-3,"stimuli/MullerLyer_-3.0000_0.45000.png","A",5,667690,0.435,"ArrowDown","arrowup",0
"S001","MullerLyer",0.18509,-3,"stimuli/MullerLyer_-3.0000_0.18509.png","A",6,669207,0.343,"ArrowDown","arrowup",0
"S001","MullerLyer",-0.18509,15,"stimuli/MullerLyer_15.0000_-0.18509.png","A",7,670606,0.422,"ArrowUp","arrowdown",0
"S001","MullerLyer",-0.30447,-27,"stimuli/MullerLyer_-27.000_-0.30447.png","A",8,671840,0.472,"ArrowUp","arrowdown",0
"S001","MullerLyer",0.30447,15,"stimuli/MullerLyer_15.0000_0.30447.png","A",9,673381,0.385,"ArrowDown","arrowup",0
"S001","MullerLyer",-0.18509,-21,"stimuli/MullerLyer_-21.000_-0.18509.png","A",10,674698,0.342,"ArrowDown","arrowdown",0
"S001","MullerLyer",-0.30447,-15,"stimuli/MullerLyer_-15.000_-0.30447.png","A",11,675920,0.624,"ArrowDown","arrowdown",0
"S001","MullerLyer",0.45,21,"stimuli/MullerLyer_21.0000_0.45000.png","A",12,677452,0.435,"ArrowDown","arrowup",0
"S001","MullerLyer",-0.30447,21,"stimuli/MullerLyer_21.0000_-0.30447.png","A",13,678832,0.193,"ArrowDown","arrowdown",0
"S001","MullerLyer",0.08716,-27,"stimuli/MullerLyer_-27.000_0.08716.png","A",14,679777,0.293,"ArrowUp","arrowup",0
"S001","MullerLyer",-0.45,-3,"stimuli/MullerLyer_-3.0000_-0.4500.png","A",15,681131,0.434,"ArrowUp","arrowdown",0
"S001","MullerLyer",0.30447,3,"stimuli/MullerLyer_3.00000_0.30447.png","A",16,682481,0.271,"ArrowDown","arrowup",0
"S001","MullerLyer",-0.30447,-21,"stimuli/MullerLyer_-21.000_-0.30447.png","A",17,683422,0.305,"ArrowUp","arrowdown",0
"S001","MullerLyer",-0.30447,-9,"stimuli/MullerLyer_-9.0000_-0.30447.png","A",18,684621,0.137,"ArrowDown","arrowdown",0
"S001","MullerLyer",-0.18509,3,"stimuli/MullerLyer_3.00000_-0.18509.png","A",19,685464,0.21,"ArrowUp","arrowdown",0
"S001","MullerLyer",0.08716,-9,"stimuli/MullerLyer_-9.0000_0.08716.png","A",20,686690,0.305,"ArrowDown","arrowup",0
"S001","MullerLyer",0.30447,-27,"stimuli/MullerLyer_-27.000_0.30447.png","A",21,687839,0.269,"ArrowDown","arrowup",0
"S001","MullerLyer",-0.08716,-27,"stimuli/MullerLyer_-27.000_-0.08716.png","A",22,689090,0.153,"ArrowDown","arrowdown",0
"S001","MullerLyer",0.45,27,"stimuli/MullerLyer_27.0000_0.45000.png","A",23,689903,0.37,"ArrowDown","arrowup",0
"S001","MullerLyer",0.30447,-21,"stimuli/MullerLyer_-21.000_0.30447.png","A",24,691181,0.269,"ArrowDown","arrowup",0
"S001","MullerLyer",-0.45,27,"stimuli/MullerLyer_27.0000_-0.4500.png","A",25,692262,2.76,"ArrowDown","arrowdown",0
"S001","MullerLyer",-0.08716,21,"stimuli/MullerLyer_21.0000_-0.08716.png","A",26,695847,1.172,"ArrowDown","arrowdown",0
"S001","MullerLyer",-0.18509,-15,"stimuli/MullerLyer_-15.000_-0.18509.png","A",27,697997,0.872,"ArrowDown","arrowdown",0
"S001","MullerLyer",-0.08716,27,"stimuli/MullerLyer_27.0000_-0.08716.png","A",28,699497,0.6,"ArrowDown","arrowdown",0
"S001","MullerLyer",-0.45,-9,"stimuli/MullerLyer_-9.0000_-0.4500.png","A",29,701031,0.429,"ArrowDown","arrowdown",0
"S001","MullerLyer",0.30447,-3,"stimuli/MullerLyer_-3.0000_0.30447.png","A",30,702169,0.587,"ArrowUp","arrowup",0
"S001","MullerLyer",0.30447,-15,"stimuli/MullerLyer_-15.000_0.30447.png","A",31,703655,0.244,"ArrowUp","arrowup",0
"S001","MullerLyer",-0.45,-27,"stimuli/MullerLyer_-27.000_-0.4500.png","A",32,704606,0.564,"ArrowUp","arrowdown",0
"S001","MullerLyer",0.18509,-9,"stimuli/MullerLyer_-9.0000_0.18509.png","A",33,705923,0.299,"ArrowUp","arrowup",0
"S001","MullerLyer",0.45,-27,"stimuli/MullerLyer_-27.000_0.45000.png","A",34,706939,0.219,"ArrowDown","arrowup",0
"S001","MullerLyer",-0.30447,3,"stimuli/MullerLyer_3.00000_-0.30447.png","A",35,707865,0.278,"ArrowUp","arrowdown",0
"S001","MullerLyer",0.08716,-3,"stimuli/MullerLyer_-3.0000_0.08716.png","A",36,709078,0.026,"ArrowDown","arrowup",0
"S001","MullerLyer",0.30447,9,"stimuli/MullerLyer_9.00000_0.30447.png","A",37,709780,0.248,"ArrowDown","arrowup",0
"S001","MullerLyer",0.45,-15,"stimuli/MullerLyer_-15.000_0.45000.png","A",38,710755,0.101,"ArrowUp","arrowup",0
"S001","MullerLyer",0.08716,3,"stimuli/MullerLyer_3.00000_0.08716.png","A",39,711721,0.171,"ArrowDown","arrowup",0
"S001","MullerLyer",0.45,15,"stimuli/MullerLyer_15.0000_0.45000.png","A",40,712640,0.234,"ArrowUp","arrowup",0
"S001","MullerLyer",-0.08716,-15,"stimuli/MullerLyer_-15.000_-0.08716.png","A",41,713598,0.423,"ArrowUp","arrowdown",0
"S001","MullerLyer",-0.08716,-9,"stimuli/MullerLyer_-9.0000_-0.08716.png","A",42,715058,0.341,"ArrowDown","arrowdown",0
"S001","MullerLyer",-0.45,21,"stimuli/MullerLyer_21.0000_-0.4500.png","A",43,716093,0.577,"ArrowUp","arrowdown",0
"S001","MullerLyer",0.08716,-21,"stimuli/MullerLyer_-21.000_0.08716.png","A",44,717588,0.1,"ArrowDown","arrowup",0
"S001","MullerLyer",0.08716,-15,"stimuli/MullerLyer_-15.000_0.08716.png","A",45,718438,0.526,"ArrowDown","arrowup",0
"S001","MullerLyer",-0.18509,-9,"stimuli/MullerLyer_-9.0000_-0.18509.png","A",46,719966,0.66,"ArrowDown","arrowdown",0
"S001","MullerLyer",0.18509,3,"stimuli/MullerLyer_3.00000_0.18509.png","A",47,721255,1.494,"ArrowUp","arrowup",0
"S001","MullerLyer",-0.18509,27,"stimuli/MullerLyer_27.0000_-0.18509.png","A",48,723512,0.418,"ArrowDown","arrowdown",0
"S001","MullerLyer",-0.18509,-3,"stimuli/MullerLyer_-3.0000_-0.18509.png","A",49,724840,0.412,"ArrowDown","arrowdown",0
"S001","MullerLyer",-0.30447,15,"stimuli/MullerLyer_15.0000_-0.30447.png","A",50,726355,0.253,"ArrowDown","arrowdown",0
"S001","MullerLyer",-0.30447,-3,"stimuli/MullerLyer_-3.0000_-0.30447.png","A",51,727555,0.362,"ArrowDown","arrowdown",0
"S001","MullerLyer",0.08716,27,"stimuli/MullerLyer_27.0000_0.08716.png","A",52,728701,0.383,"ArrowUp","arrowup",0
"S001","MullerLyer",0.18509,21,"stimuli/MullerLyer_21.0000_0.18509.png","A",53,730154,0.294,"ArrowUp","arrowup",0
"S001","MullerLyer",0.08716,15,"stimuli/MullerLyer_15.0000_0.08716.png","A",54,731495,0.152,"ArrowUp","arrowup",0
"S001","MullerLyer",-0.30447,27,"stimuli/MullerLyer_27.0000_-0.30447.png","A",55,732528,0.193,"ArrowUp","arrowdown",0
"S001","MullerLyer",-0.08716,3,"stimuli/MullerLyer_3.00000_-0.08716.png","A",56,733353,0.306,"ArrowDown","arrowdown",0
"S001","MullerLyer",0.45,9,"stimuli/MullerLyer_9.00000_0.45000.png","A",57,734573,8.686,"ArrowDown","arrowup",0
"S001","MullerLyer",-0.30447,9,"stimuli/MullerLyer_9.00000_-0.30447.png","A",58,744112,0.378,"ArrowDown","arrowdown",0
"S001","MullerLyer",0.30447,-9,"stimuli/MullerLyer_-9.0000_0.30447.png","A",59,745436,0.07,"ArrowDown","arrowup",0
"S001","MullerLyer",-0.45,9,"stimuli/MullerLyer_9.00000_-0.4500.png","A",60,746156,0.37,"ArrowUp","arrowdown",0
"S001","MullerLyer",-0.18509,-27,"stimuli/MullerLyer_-27.000_-0.18509.png","A",61,747317,0.231,"ArrowUp","arrowdown",0
"S001","MullerLyer",-0.08716,9,"stimuli/MullerLyer_9.00000_-0.08716.png","A",62,748609,0.585,"ArrowDown","arrowdown",0
"S001","MullerLyer",0.08716,9,"stimuli/MullerLyer_9.00000_0.08716.png","A",63,749949,0.361,"ArrowDown","arrowup",0
"S001","MullerLyer",0.18509,15,"stimuli/MullerLyer_15.0000_0.18509.png","A",64,751401,0.835,"ArrowUp","arrowup",0
"S001","MullerLyer",0.18509,-15,"stimuli/MullerLyer_-15.000_0.18509.png","A",65,753101,0.111,"ArrowUp","arrowup",0
"S001","MullerLyer",-0.08716,-21,"stimuli/MullerLyer_-21.000_-0.08716.png","A",66,753988,0.239,"ArrowDown","arrowdown",0
"S001","MullerLyer",-0.18509,21,"stimuli/MullerLyer_21.0000_-0.18509.png","A",67,755043,0.289,"ArrowUp","arrowdown",0
"S001","MullerLyer",0.18509,9,"stimuli/MullerLyer_9.00000_0.18509.png","A",68,756411,0.036,"ArrowDown","arrowup",0
"S001","MullerLyer",0.18509,27,"stimuli/MullerLyer_27.0000_0.18509.png","A",69,757354,0.06,"ArrowDown","arrowup",0
"S001","MullerLyer",0.30447,21,"stimuli/MullerLyer_21.0000_0.30447.png","A",70,758381,1.14,"ArrowDown","arrowup",0
"S001","MullerLyer",-0.08716,15,"stimuli/MullerLyer_15.0000_-0.08716.png","A",71,760436,0.273,"ArrowDown","arrowdown",0
"S001","MullerLyer",0.18509,-27,"stimuli/MullerLyer_-27.000_0.18509.png","A",72,761581,0.143,"ArrowDown","arrowup",0
"S001","MullerLyer",-0.45,-15,"stimuli/MullerLyer_-15.000_-0.4500.png","A",73,762601,0.339,"ArrowUp","arrowdown",0
"S001","MullerLyer",-0.45,15,"stimuli/MullerLyer_15.0000_-0.4500.png","A",74,763696,0.251,"ArrowUp","arrowdown",0
"S001","MullerLyer",-0.08716,-3,"stimuli/MullerLyer_-3.0000_-0.08716.png","A",75,764569,0.44,"ArrowUp","arrowdown",0
"S001","MullerLyer",-0.45,-21,"stimuli/MullerLyer_-21.000_-0.4500.png","A",76,765999,0.048,"ArrowDown","arrowdown",0
"S001","MullerLyer",0.45,3,"stimuli/MullerLyer_3.00000_0.45000.png","A",77,766882,0.242,"ArrowUp","arrowup",0
"S001","MullerLyer",0.45,-21,"stimuli/MullerLyer_-21.000_0.45000.png","A",78,768043,0.048,"ArrowDown","arrowup",0
"S001","MullerLyer",0.08716,21,"stimuli/MullerLyer_21.0000_0.08716.png","A",79,769036,0.136,"ArrowDown","arrowup",0
"S001","MullerLyer",-0.18509,9,"stimuli/MullerLyer_9.00000_-0.18509.png","A",80,770214,1.132,"ArrowDown","arrowdown",0
"S001","Ebbinghaus",-0.3383,0.75,"stimuli/Ebbinghaus_0.75000_-0.3383.png","A",1,779199,0.427,"ArrowRight","arrowright",0
"S001","Ebbinghaus",0.3383,-1.35,"stimuli/Ebbinghaus_-1.3500_0.33830.png","A",2,780242,0.303,"ArrowRight","arrowleft",0
"S001","Ebbinghaus",-0.09684,-0.15,"stimuli/Ebbinghaus_-0.1500_-0.09684.png","A",3,781513,0.647,"ArrowRight","arrowright",0
"S001","Ebbinghaus",-0.5,-0.75,"stimuli/Ebbinghaus_-0.7500_-0.5000.png","A",4,783179,0.118,"ArrowLeft","arrowright",0
"S001","Ebbinghaus",0.09684,-0.15,"stimuli/Ebbinghaus_-0.1500_0.09684.png","A",5,784182,0.245,"ArrowRight","arrowleft",0
"S001","Ebbinghaus",0.09684,-1.35,"stimuli/Ebbinghaus_-1.3500_0.09684.png","A",6,785167,0.324,"ArrowLeft","arrowleft",0
"S001","Ebbinghaus",0.20566,-1.35,"stimuli/Ebbinghaus_-1.3500_0.20566.png","A",7,786441,0.249,"ArrowLeft","arrowleft",0
"S001","Ebbinghaus",0.09684,-0.75,"stimuli/Ebbinghaus_-0.7500_0.09684.png","A",8,787364,0.297,"ArrowRight","arrowleft",0
"S001","Ebbinghaus",0.5,1.05,"stimuli/Ebbinghaus_1.05000_0.50000.png","A",9,788453,0.122,"ArrowRight","arrowleft",0
"S001","Ebbinghaus",-0.09684,1.35,"stimuli/Ebbinghaus_1.35000_-0.09684.png","A",10,789280,0.272,"ArrowLeft","arrowright",0
"S001","Ebbinghaus",-0.3383,-0.45,"stimuli/Ebbinghaus_-0.4500_-0.3383.png","A",11,790490,0.085,"ArrowRight","arrowright",0
"S001","Ebbinghaus",0.20566,-0.75,"stimuli/Ebbinghaus_-0.7500_0.20566.png","A",12,791408,0.176,"ArrowRight","arrowleft",0
"S001","Ebbinghaus",0.20566,-0.45,"stimuli/Ebbinghaus_-0.4500_0.20566.png","A",13,792347,0.154,"ArrowLeft","arrowleft",0
"S001","Ebbinghaus",0.20566,0.15,"stimuli/Ebbinghaus_0.15000_0.20566.png","A",14,793481,0.282,"ArrowLeft","arrowleft",0
"S001","Ebbinghaus",0.20566,0.75,"stimuli/Ebbinghaus_0.75000_0.20566.png","A",15,794792,0.14,"ArrowRight","arrowleft",0
"S001","Ebbinghaus",-0.20566,-1.35,"stimuli/Ebbinghaus_-1.3500_-0.20566.png","A",16,795561,0.363,"ArrowRight","arrowright",0
"S001","Ebbinghaus",0.5,0.15,"stimuli/Ebbinghaus_0.15000_0.50000.png","A",17,796889,0.118,"ArrowLeft","arrowleft",0
"S001","Ebbinghaus",0.5,1.35,"stimuli/Ebbinghaus_1.35000_0.50000.png","A",18,797679,0.318,"ArrowRight","arrowleft",0
"S001","Ebbinghaus",-0.20566,0.45,"stimuli/Ebbinghaus_0.45000_-0.20566.png","A",19,798614,0.29,"ArrowRight","arrowright",0
"S001","Ebbinghaus",0.3383,0.75,"stimuli/Ebbinghaus_0.75000_0.33830.png","A",20,799954,0.564,"ArrowRight","arrowleft",0
"S001","Ebbinghaus",-0.3383,-1.05,"stimuli/Ebbinghaus_-1.0500_-0.3383.png","A",21,801556,0.256,"ArrowLeft","arrowright",0
"S001","Ebbinghaus",0.20566,0.45,"stimuli/Ebbinghaus_0.45000_0.20566.png","A",22,802667,0.152,"ArrowRight","arrowleft",0
"S001","Ebbinghaus",0.5,-1.05,"stimuli/Ebbinghaus_-1.0500_0.50000.png","A",23,803808,0.044,"ArrowLeft","arrowleft",0
"S001","Ebbinghaus",-0.20566,-0.75,"stimuli/Ebbinghaus_-0.7500_-0.20566.png","A",24,804590,0.277,"ArrowLeft","arrowright",0
"S001","Ebbinghaus",-0.3383,-1.35,"stimuli/Ebbinghaus_-1.3500_-0.3383.png","A",25,805731,0.099,"ArrowLeft","arrowright",0
"S001","Ebbinghaus",-0.3383,-0.75,"stimuli/Ebbinghaus_-0.7500_-0.3383.png","A",26,806667,0.133,"ArrowRight","arrowright",0
"S001","Ebbinghaus",-0.09684,-1.35,"stimuli/Ebbinghaus_-1.3500_-0.09684.png","A",27,807426,0.281,"ArrowLeft","arrowright",0
"S001","Ebbinghaus",0.09684,0.15,"stimuli/Ebbinghaus_0.15000_0.09684.png","A",28,808584,0.184,"ArrowLeft","arrowleft",0
"S001","Ebbinghaus",0.5,-0.15,"stimuli/Ebbinghaus_-0.1500_0.50000.png","A",29,809514,0.389,"ArrowLeft","arrowleft",0
"S001","Ebbinghaus",-0.3383,-0.15,"stimuli/Ebbinghaus_-0.1500_-0.3383.png","A",30,810697,0.23,"ArrowLeft","arrowright",0
"S001","Ebbinghaus",-0.5,0.75,"stimuli/Ebbinghaus_0.75000_-0.5000.png","A",31,811567,0.358,"ArrowRight","arrowright",0
"S001","Ebbinghaus",0.3383,0.45,"stimuli/Ebbinghaus_0.45000_0.33830.png","A",32,813024,0.369,"ArrowRight","arrowleft",0
"S001","Ebbinghaus",-0.5,-0.15,"stimuli/Ebbinghaus_-0.1500_-0.5000.png","A",33,814100,0.446,"ArrowLeft","arrowright",0
"S001","Ebbinghaus",-0.20566,-0.15,"stimuli/Ebbinghaus_-0.1500_-0.20566.png","A",34,815474,0.175,"ArrowRight","arrowright",0
"S001","Ebbinghaus",-0.3383,0.45,"stimuli/Ebbinghaus_0.45000_-0.3383.png","A",35,816364,0.309,"ArrowRight","arrowright",0
"S001","Ebbinghaus",-0.5,0.45,"stimuli/Ebbinghaus_0.45000_-0.5000.png","A",36,817706,0.214,"ArrowRight","arrowright",0
"S001","Ebbinghaus",0.3383,-1.05,"stimuli/Ebbinghaus_-1.0500_0.33830.png","A",37,818799,0.438,"ArrowLeft","arrowleft",0
"S001","Ebbinghaus",-0.5,-0.45,"stimuli/Ebbinghaus_-0.4500_-0.5000.png","A",38,819972,0.591,"ArrowRight","arrowright",0
"S001","Ebbinghaus",0.09684,-0.45,"stimuli/Ebbinghaus_-0.4500_0.09684.png","A",39,821607,0.205,"ArrowRight","arrowleft",0
"S001","Ebbinghaus",0.5,-1.35,"stimuli/Ebbinghaus_-1.3500_0.50000.png","A",40,822884,0.355,"ArrowRight","arrowleft",0
"S001","Ebbinghaus",0.5,0.45,"stimuli/Ebbinghaus_0.45000_0.50000.png","A",41,824297,0.024,"ArrowLeft","arrowleft",0
"S001","Ebbinghaus",-0.09684,-0.75,"stimuli/Ebbinghaus_-0.7500_-0.09684.png","A",42,825265,0.228,"ArrowRight","arrowright",0
"S001","Ebbinghaus",-0.09684,0.45,"stimuli/Ebbinghaus_0.45000_-0.09684.png","A",43,826217,0.268,"ArrowLeft","arrowright",0
"S001","Ebbinghaus",-0.20566,1.05,"stimuli/Ebbinghaus_1.05000_-0.20566.png","A",44,827099,0.433,"ArrowRight","arrowright",0
"S001","Ebbinghaus",0.3383,-0.75,"stimuli/Ebbinghaus_-0.7500_0.33830.png","A",45,828451,1.188,"ArrowLeft","arrowleft",0
"S001","Ebbinghaus",0.5,-0.45,"stimuli/Ebbinghaus_-0.4500_0.50000.png","A",46,830624,0.577,"ArrowRight","arrowleft",0
"S001","Ebbinghaus",-0.5,-1.35,"stimuli/Ebbinghaus_-1.3500_-0.5000.png","A",47,831979,0.092,"ArrowRight","arrowright",0
"S001","Ebbinghaus",-0.5,0.15,"stimuli/Ebbinghaus_0.15000_-0.5000.png","A",48,832957,0.034,"ArrowLeft","arrowright",0
"S001","Ebbinghaus",0.3383,1.35,"stimuli/Ebbinghaus_1.35000_0.33830.png","A",49,833826,0.045,"ArrowRight","arrowleft",0
"S001","Ebbinghaus",0.3383,1.05,"stimuli/Ebbinghaus_1.05000_0.33830.png","A",50,834875,1.115,"ArrowLeft","arrowleft",0
"S001","Ebbinghaus",0.20566,1.35,"stimuli/Ebbinghaus_1.35000_0.20566.png","A",51,836717,0.185,"ArrowLeft","arrowleft",0
"S001","Ebbinghaus",-0.3383,1.35,"stimuli/Ebbinghaus_1.35000_-0.3383.png","A",52,837635,0.91,"ArrowLeft","arrowright",0
"S001","Ebbinghaus",-0.5,1.35,"stimuli/Ebbinghaus_1.35000_-0.5000.png","A",53,839562,0.114,"ArrowLeft","arrowright",0
"S001","Ebbinghaus",-0.09684,0.75,"stimuli/Ebbinghaus_0.75000_-0.09684.png","A",54,840504,0.289,"ArrowLeft","arrowright",0
"S001","Ebbinghaus",0.3383,-0.45,"stimuli/Ebbinghaus_-0.4500_0.33830.png","A",55,841560,0.148,"ArrowRight","arrowleft",0
"S001","Ebbinghaus",0.20566,-0.15,"stimuli/Ebbinghaus_-0.1500_0.20566.png","A",56,842788,0.419,"ArrowRight","arrowleft",0
"S001","Ebbinghaus",-0.3383,0.15,"stimuli/Ebbinghaus_0.15000_-0.3383.png","A",57,844282,0.326,"ArrowLeft","arrowright",0
"S001","Ebbinghaus",-0.09684,1.05,"stimuli/Ebbinghaus_1.05000_-0.09684.png","A",58,845417,0.383,"ArrowRight","arrowright",0
"S001","Ebbinghaus",-0.5,1.05,"stimuli/Ebbinghaus_1.05000_-0.5000.png","A",59,846456,0.295,"ArrowRight","arrowright",0
"S001","Ebbinghaus",0.09684,-1.05,"stimuli/Ebbinghaus_-1.0500_0.09684.png","A",60,847634,0.209,"ArrowRight","arrowleft",0
"S001","Ebbinghaus",-0.20566,1.35,"stimuli/Ebbinghaus_1.35000_-0.20566.png","A",61,848589,0.272,"ArrowRight","arrowright",0
"S001","Ebbinghaus",0.20566,-1.05,"stimuli/Ebbinghaus_-1.0500_0.20566.png","A",62,849697,0.303,"ArrowRight","arrowleft",0
"S001","Ebbinghaus",-0.3383,1.05,"stimuli/Ebbinghaus_1.05000_-0.3383.png","A",63,850900,0.044,"ArrowRight","arrowright",0
"S001","Ebbinghaus",0.09684,0.45,"stimuli/Ebbinghaus_0.45000_0.09684.png","A",64,851907,0.336,"ArrowLeft","arrowleft",0
"S001","Ebbinghaus",-0.20566,-1.05,"stimuli/Ebbinghaus_-1.0500_-0.20566.png","A",65,853308,0.414,"ArrowRight","arrowright",0
"S001","Ebbinghaus",0.09684,1.05,"stimuli/Ebbinghaus_1.05000_0.09684.png","A",66,854406,0.198,"ArrowRight","arrowleft",0
"S001","Ebbinghaus",0.3383,0.15,"stimuli/Ebbinghaus_0.15000_0.33830.png","A",67,855364,0.136,"ArrowRight","arrowleft",0
"S001","Ebbinghaus",-0.09684,0.15,"stimuli/Ebbinghaus_0.15000_-0.09684.png","A",68,856147,0.394,"ArrowRight","arrowright",0
"S001","Ebbinghaus",-0.20566,0.75,"stimuli/Ebbinghaus_0.75000_-0.20566.png","A",69,857575,0.442,"ArrowRight","arrowright",0
"S001","Ebbinghaus",-0.20566,0.15,"stimuli/Ebbinghaus_0.15000_-0.20566.png","A",70,858992,0.25,"ArrowRight","arrowright",0
"S001","Ebbinghaus",0.5,0.75,"stimuli/Ebbinghaus_0.75000_0.50000.png","A",71,860166,40.806,"ArrowLeft","arrowleft",0
"S001","Ebbinghaus",-0.09684,-0.45,"stimuli/Ebbinghaus_-0.4500_-0.09684.png","A",72,901836,0.615,"ArrowLeft","arrowright",0
"S001","Ebbinghaus",-0.20566,-0.45,"stimuli/Ebbinghaus_-0.4500_-0.20566.png","A",73,903438,0.245,"ArrowLeft","arrowright",0
"S001","Ebbinghaus",0.09684,1.35,"stimuli/Ebbinghaus_1.35000_0.09684.png","A",74,904617,0.241,"ArrowLeft","arrowleft",0
"S001","Ebbinghaus",-0.5,-1.05,"stimuli/Ebbinghaus_-1.0500_-0.5000.png","A",75,905910,0.039,"ArrowLeft","arrowright",0
"S001","Ebbinghaus",0.09684,0.75,"stimuli/Ebbinghaus_0.75000_0.09684.png","A",76,906879,0.335,"ArrowLeft","arrowleft",0
"S001","Ebbinghaus",0.20566,1.05,"stimuli/Ebbinghaus_1.05000_0.20566.png","A",77,908039,0.663,"ArrowLeft","arrowleft",0
"S001","Ebbinghaus",0.3383,-0.15,"stimuli/Ebbinghaus_-0.1500_0.33830.png","A",78,909533,0.636,"ArrowLeft","arrowleft",0
"S001","Ebbinghaus",-0.09684,-1.05,"stimuli/Ebbinghaus_-1.0500_-0.09684.png","A",79,911095,0.773,"ArrowLeft","arrowright",0
"S001","Ebbinghaus",0.5,-0.75,"stimuli/Ebbinghaus_-0.7500_0.50000.png","A",80,912537,0.325,"ArrowLeft","arrowleft",0
"S001","VerticalHorizontal",-0.0581,4.5,"stimuli/VerticalHorizontal_4.50000_-0.0581.png","A",1,919838,0.29,"ArrowLeft","arrowright",0
"S001","VerticalHorizontal",-0.20298,-13.5,"stimuli/VerticalHorizontal_-13.500_-0.20298.png","A",2,921202,0.083,"ArrowLeft","arrowright",0
"S001","VerticalHorizontal",0.0581,4.5,"stimuli/VerticalHorizontal_4.50000_0.05810.png","A",3,922302,0.369,"ArrowLeft","arrowleft",0
"S001","VerticalHorizontal",-0.20298,-40.5,"stimuli/VerticalHorizontal_-40.500_-0.20298.png","A",4,923710,0.058,"ArrowLeft","arrowright",0
"S001","VerticalHorizontal",-0.20298,40.5,"stimuli/VerticalHorizontal_40.5000_-0.20298.png","A",5,924703,0.077,"ArrowLeft","arrowright",0
"S001","VerticalHorizontal",0.0581,22.5,"stimuli/VerticalHorizontal_22.5000_0.05810.png","A",6,925520,1.154,"ArrowRight","arrowleft",0
"S001","VerticalHorizontal",0.0581,31.5,"stimuli/VerticalHorizontal_31.5000_0.05810.png","A",7,927585,0.438,"ArrowRight","arrowleft",0
"S001","VerticalHorizontal",-0.12339,-13.5,"stimuli/VerticalHorizontal_-13.500_-0.12339.png","A",8,928855,0.383,"ArrowRight","arrowright",0
"S001","VerticalHorizontal",-0.3,4.5,"stimuli/VerticalHorizontal_4.50000_-0.3000.png","A",9,930197,1.097,"ArrowRight","arrowright",0
"S001","VerticalHorizontal",-0.20298,-22.5,"stimuli/VerticalHorizontal_-22.500_-0.20298.png","A",10,932073,1.299,"ArrowRight","arrowright",0
"S001","VerticalHorizontal",0.12339,-22.5,"stimuli/VerticalHorizontal_-22.500_0.12339.png","A",11,934112,0.786,"ArrowLeft","arrowleft",0
"S001","VerticalHorizontal",0.20298,22.5,"stimuli/VerticalHorizontal_22.5000_0.20298.png","A",12,935883,1.23,"ArrowRight","arrowleft",0
"S001","VerticalHorizontal",0.3,-31.5,"stimuli/VerticalHorizontal_-31.500_0.30000.png","A",13,937733,0.598,"ArrowRight","arrowleft",0
"S001","VerticalHorizontal",0.20298,-31.5,"stimuli/VerticalHorizontal_-31.500_0.20298.png","A",14,939003,0.687,"ArrowLeft","arrowleft",0
"S001","VerticalHorizontal",0.3,4.5,"stimuli/VerticalHorizontal_4.50000_0.30000.png","A",15,940478,1.815,"ArrowLeft","arrowleft",0
"S001","VerticalHorizontal",0.12339,31.5,"stimuli/VerticalHorizontal_31.5000_0.12339.png","A",16,943350,0.673,"ArrowRight","arrowleft",0
"S001","VerticalHorizontal",-0.3,-13.5,"stimuli/VerticalHorizontal_-13.500_-0.3000.png","A",17,945085,0.286,"ArrowRight","arrowright",0
"S001","VerticalHorizontal",-0.3,-4.5,"stimuli/VerticalHorizontal_-4.5000_-0.3000.png","A",18,946355,0.401,"ArrowRight","arrowright",0
"S001","VerticalHorizontal",0.0581,40.5,"stimuli/VerticalHorizontal_40.5000_0.05810.png","A",19,947664,0.427,"ArrowRight","arrowleft",0
"S001","VerticalHorizontal",-0.0581,40.5,"stimuli/VerticalHorizontal_40.5000_-0.0581.png","A",20,948739,0.476,"ArrowLeft","arrowright",0
"S001","VerticalHorizontal",-0.3,13.5,"stimuli/VerticalHorizontal_13.5000_-0.3000.png","A",21,950173,0.221,"ArrowRight","arrowright",0
"S001","VerticalHorizontal",-0.0581,-31.5,"stimuli/VerticalHorizontal_-31.500_-0.0581.png","A",22,951345,0.507,"ArrowRight","arrowright",0
"S001","VerticalHorizontal",0.12339,4.5,"stimuli/VerticalHorizontal_4.50000_0.12339.png","A",23,952785,0.705,"ArrowLeft","arrowleft",0
"S001","VerticalHorizontal",0.20298,-13.5,"stimuli/VerticalHorizontal_-13.500_0.20298.png","A",24,954365,24.66,"ArrowRight","arrowleft",0
"S001","VerticalHorizontal",-0.12339,4.5,"stimuli/VerticalHorizontal_4.50000_-0.12339.png","A",25,979898,0.283,"ArrowLeft","arrowright",0
"S001","VerticalHorizontal",0.12339,-4.5,"stimuli/VerticalHorizontal_-4.5000_0.12339.png","A",26,981250,1.268,"ArrowRight","arrowleft",0
"S001","VerticalHorizontal",0.3,31.5,"stimuli/VerticalHorizontal_31.5000_0.30000.png","A",27,983193,0.354,"ArrowLeft","arrowleft",0
"S001","VerticalHorizontal",-0.20298,-4.5,"stimuli/VerticalHorizontal_-4.5000_-0.20298.png","A",28,984278,0.38,"ArrowRight","arrowright",0
"S001","VerticalHorizontal",-0.0581,22.5,"stimuli/VerticalHorizontal_22.5000_-0.0581.png","A",29,985540,0.321,"ArrowRight","arrowright",0
"S001","VerticalHorizontal",-0.12339,40.5,"stimuli/VerticalHorizontal_40.5000_-0.12339.png","A",30,986769,0.235,"ArrowLeft","arrowright",0
"S001","VerticalHorizontal",0.20298,-40.5,"stimuli/VerticalHorizontal_-40.500_0.20298.png","A",31,987702,0.361,"ArrowRight","arrowleft",0
"S001","VerticalHorizontal",-0.12339,13.5,"stimuli/VerticalHorizontal_13.5000_-0.12339.png","A",32,989089,0.382,"ArrowRight","arrowright",0
"S001","VerticalHorizontal",0.12339,13.5,"stimuli/VerticalHorizontal_13.5000_0.12339.png","A",33,990393,0.152,"ArrowLeft","arrowleft",0
"S001","VerticalHorizontal",0.20298,40.5,"stimuli/VerticalHorizontal_40.5000_0.20298.png","A",34,991572,0.037,"ArrowLeft","arrowleft",0
"S001","VerticalHorizontal",0.0581,-40.5,"stimuli/VerticalHorizontal_-40.500_0.05810.png","A",35,992355,0.27,"ArrowRight","arrowleft",0
"S001","VerticalHorizontal",0.3,40.5,"stimuli/VerticalHorizontal_40.5000_0.30000.png","A",36,993293,0.337,"ArrowLeft","arrowleft",0
"S001","VerticalHorizontal",0.12339,-31.5,"stimuli/VerticalHorizontal_-31.500_0.12339.png","A",37,994284,0.43,"ArrowRight","arrowleft",0
"S001","VerticalHorizontal",0.20298,4.5,"stimuli/VerticalHorizontal_4.50000_0.20298.png","A",38,995807,0.059,"ArrowRight","arrowleft",0
"S001","VerticalHorizontal",-0.3,-31.5,"stimuli/VerticalHorizontal_-31.500_-0.3000.png","A",39,996539,0.57,"ArrowLeft","arrowright",0
"S001","VerticalHorizontal",-0.0581,-4.5,"stimuli/VerticalHorizontal_-4.5000_-0.0581.png","A",40,997741,0.975,"ArrowLeft","arrowright",0
"S001","VerticalHorizontal",-0.12339,-31.5,"stimuli/VerticalHorizontal_-31.500_-0.12339.png","A",41,999772,0.296,"ArrowRight","arrowright",0
"S001","VerticalHorizontal",-0.20298,4.5,"stimuli/VerticalHorizontal_4.50000_-0.20298.png","A",42,1000829,0.386,"ArrowLeft","arrowright",0
"S001","VerticalHorizontal",-0.0581,-40.5,"stimuli/VerticalHorizontal_-40.500_-0.0581.png","A",43,1002028,0.35,"ArrowRight","arrowright",0
"S001","VerticalHorizontal",-0.3,-40.5,"stimuli/VerticalHorizontal_-40.500_-0.3000.png","A",44,1003109,0.241,"ArrowLeft","arrowright",0
"S001","VerticalHorizontal",-0.20298,31.5,"stimuli/VerticalHorizontal_31.5000_-0.20298.png","A",45,1004425,0.038,"ArrowRight","arrowright",0
"S001","VerticalHorizontal",0.3,-22.5,"stimuli/VerticalHorizontal_-22.500_0.30000.png","A",46,1005284,0.252,"ArrowLeft","arrowleft",0
"S001","VerticalHorizontal",0.3,-13.5,"stimuli/VerticalHorizontal_-13.500_0.30000.png","A",47,1006537,0.266,"ArrowRight","arrowleft",0
"S001","VerticalHorizontal",-0.12339,-4.5,"stimuli/VerticalHorizontal_-4.5000_-0.12339.png","A",48,1007596,0.284,"ArrowLeft","arrowright",0
"S001","VerticalHorizontal",-0.12339,31.5,"stimuli/VerticalHorizontal_31.5000_-0.12339.png","A",49,1008780,0.282,"ArrowRight","arrowright",0
"S001","VerticalHorizontal",0.12339,22.5,"stimuli/VerticalHorizontal_22.5000_0.12339.png","A",50,1009997,0.377,"ArrowLeft","arrowleft",0
"S001","VerticalHorizontal",0.0581,13.5,"stimuli/VerticalHorizontal_13.5000_0.05810.png","A",51,1011093,0.314,"ArrowRight","arrowleft",0
"S001","VerticalHorizontal",0.12339,40.5,"stimuli/VerticalHorizontal_40.5000_0.12339.png","A",52,1012267,0.238,"ArrowRight","arrowleft",0
"S001","VerticalHorizontal",0.3,-40.5,"stimuli/VerticalHorizontal_-40.500_0.30000.png","A",53,1013485,0.043,"ArrowLeft","arrowleft",0
"S001","VerticalHorizontal",-0.20298,22.5,"stimuli/VerticalHorizontal_22.5000_-0.20298.png","A",54,1014542,0.451,"ArrowRight","arrowright",0
"S001","VerticalHorizontal",0.3,13.5,"stimuli/VerticalHorizontal_13.5000_0.30000.png","A",55,1016004,0.066,"ArrowLeft","arrowleft",0
"S001","VerticalHorizontal",-0.20298,-31.5,"stimuli/VerticalHorizontal_-31.500_-0.20298.png","A",56,1017058,0.251,"ArrowLeft","arrowright",0
"S001","VerticalHorizontal",0.0581,-13.5,"stimuli/VerticalHorizontal_-13.500_0.05810.png","A",57,1018382,0.317,"ArrowLeft","arrowleft",0
"S001","VerticalHorizontal",-0.3,-22.5,"stimuli/VerticalHorizontal_-22.500_-0.3000.png","A",58,1019546,0.314,"ArrowRight","arrowright",0
"S001","VerticalHorizontal",-0.3,22.5,"stimuli/VerticalHorizontal_22.5000_-0.3000.png","A",59,1020538,0.463,"ArrowLeft","arrowright",0
"S001","VerticalHorizontal",-0.0581,-22.5,"stimuli/VerticalHorizontal_-22.500_-0.0581.png","A",60,1021858,0.27,"ArrowRight","arrowright",0
"S001","VerticalHorizontal",-0.3,31.5,"stimuli/VerticalHorizontal_31.5000_-0.3000.png","A",61,1023100,0.168,"ArrowLeft","arrowright",0
"S001","VerticalHorizontal",0.3,22.5,"stimuli/VerticalHorizontal_22.5000_0.30000.png","A",62,1024075,0.373,"ArrowRight","arrowleft",0
"S001","VerticalHorizontal",-0.20298,13.5,"stimuli/VerticalHorizontal_13.5000_-0.20298.png","A",63,1025538,1.406,"ArrowLeft","arrowright",0
"S001","VerticalHorizontal",0.20298,-22.5,"stimuli/VerticalHorizontal_-22.500_0.20298.png","A",64,1027802,0.124,"ArrowLeft","arrowleft",0
"S001","VerticalHorizontal",-0.12339,22.5,"stimuli/VerticalHorizontal_22.5000_-0.12339.png","A",65,1028625,0.365,"ArrowLeft","arrowright",0
"S001","VerticalHorizontal",0.20298,31.5,"stimuli/VerticalHorizontal_31.5000_0.20298.png","A",66,1029825,0.178,"ArrowLeft","arrowleft",0
"S001","VerticalHorizontal",0.0581,-31.5,"stimuli/VerticalHorizontal_-31.500_0.05810.png","A",67,1031100,0.403,"ArrowLeft","arrowleft",0
"S001","VerticalHorizontal",0.0581,-22.5,"stimuli/VerticalHorizontal_-22.500_0.05810.png","A",68,1032246,0.683,"ArrowRight","arrowleft",0
"S001","VerticalHorizontal",-0.3,40.5,"stimuli/VerticalHorizontal_40.5000_-0.3000.png","A",69,1033834,0.628,"ArrowLeft","arrowright",0
"S001","VerticalHorizontal",0.20298,-4.5,"stimuli/VerticalHorizontal_-4.5000_0.20298.png","A",70,1035275,0.317,"ArrowRight","arrowleft",0
"S001","VerticalHorizontal",0.20298,13.5,"stimuli/VerticalHorizontal_13.5000_0.20298.png","A",71,1036406,0.398,"ArrowLeft","arrowleft",0
"S001","VerticalHorizontal",0.12339,-40.5,"stimuli/VerticalHorizontal_-40.500_0.12339.png","A",72,1037699,0.47,"ArrowRight","arrowleft",0
"S001","VerticalHorizontal",0.12339,-13.5,"stimuli/VerticalHorizontal_-13.500_0.12339.png","A",73,1038955,0.457,"ArrowLeft","arrowleft",0
"S001","VerticalHorizontal",0.3,-4.5,"stimuli/VerticalHorizontal_-4.5000_0.30000.png","A",74,1040408,0.395,"ArrowRight","arrowleft",0
"S001","VerticalHorizontal",-0.0581,13.5,"stimuli/VerticalHorizontal_13.5000_-0.0581.png","A",75,1041796,0.437,"ArrowLeft","arrowright",0
"S001","VerticalHorizontal",-0.0581,-13.5,"stimuli/VerticalHorizontal_-13.500_-0.0581.png","A",76,1042916,0.299,"ArrowRight","arrowright",0
"S001","VerticalHorizontal",0.0581,-4.5,"stimuli/VerticalHorizontal_-4.5000_0.05810.png","A",77,1044312,0.087,"ArrowLeft","arrowleft",0
"S001","VerticalHorizontal",-0.12339,-22.5,"stimuli/VerticalHorizontal_-22.500_-0.12339.png","A",78,1045278,0.593,"ArrowLeft","arrowright",0
"S001","VerticalHorizontal",-0.0581,31.5,"stimuli/VerticalHorizontal_31.5000_-0.0581.png","A",79,1046872,0.06,"ArrowRight","arrowright",0
"S001","VerticalHorizontal",-0.12339,-40.5,"stimuli/VerticalHorizontal_-40.500_-0.12339.png","A",80,1047918,0.351,"ArrowRight","arrowright",0
