"Participant","Illusion_Type","Illusion_Difference","Illusion_Strength","File","Block","Trial","ISI","RT","Response","Response_Correct","Error"
"S001","MullerLyer",-0.1337,-18,"stimuli/MullerLyer_-18.000_-0.1337.png","B",1,1468412,0.477,"ArrowDown","arrowdown",0
"S001","MullerLyer",-0.37364,-30,"stimuli/MullerLyer_-30.000_-0.37364.png","B",2,1469642,0.51,"ArrowDown","arrowdown",0
"S001","MullerLyer",-0.045,18,"stimuli/MullerLyer_18.0000_-0.0450.png","B",3,1470789,0.751,"ArrowUp","arrowdown",0
"S001","MullerLyer",-0.24183,12,"","B",4,1472260,NA,"","arrowdown",0
"S001","MullerLyer",-0.37364,-6,"stimuli/MullerLyer_-6.0000_-0.37364.png","B",5,1473666,0.51,"ArrowDown","arrowdown",0
"S001","MullerLyer",-0.24183,30,"stimuli/MullerLyer_30.0000_-0.24183.png","B",6,1475023,0.51,"ArrowUp","arrowdown",0
"S001","MullerLyer",0.1337,18,"stimuli/MullerLyer_18.0000_0.13370.png","B",7,1476434,0.486,"ArrowDown","arrowup",0
"S001","MullerLyer",0.1337,30,"stimuli/MullerLyer_30.0000_0.13370.png","B",8,1478005,0.493,"ArrowDown","arrowup",0
"S001","MullerLyer",0.045,18,"stimuli/MullerLyer_18.0000_0.04500.png","B",9,1479189,0.449,"ArrowDown","arrowup",0
"S001","MullerLyer",0.045,30,"stimuli/MullerLyer_30.0000_0.04500.png","B",10,1480368,0.48,"ArrowDown","arrowup",0
"S001","MullerLyer",0.045,6,"stimuli/MullerLyer_6.00000_0.04500.png","B",11,1481742,0.466,"ArrowDown","arrowup",0
"S001","MullerLyer",-0.37364,12,"stimuli/MullerLyer_12.0000_-0.37364.png","B",12,1482894,0.494,"ArrowDown","arrowdown",0
"S001","MullerLyer",-0.37364,-18,"stimuli/MullerLyer_-18.000_-0.37364.png","B",13,1484118,0.326,"ArrowDown","arrowdown",0
"S001","MullerLyer",-0.37364,24,"stimuli/MullerLyer_24.0000_-0.37364.png","B",14,1485155,0.371,"ArrowDown","arrowdown",0
"S001","MullerLyer",-0.1337,30,"stimuli/MullerLyer_30.0000_-0.1337.png","B",15,1486218,0.35,"ArrowDown","arrowdown",0
"S001","MullerLyer",0.24183,30,"stimuli/MullerLyer_30.0000_0.24183.png","B",16,1487185,0.428,"ArrowUp","arrowup",0
"S001","MullerLyer",0.24183,-30,"stimuli/MullerLyer_-30.000_0.24183.png","B",17,1488530,0.399,"ArrowUp","arrowup",0
"S001","MullerLyer",-0.1337,6,"stimuli/MullerLyer_6.00000_-0.1337.png","B",18,1489639,0.436,"ArrowUp","arrowdown",0
"S001","MullerLyer",-0.045,-18,"stimuli/MullerLyer_-18.000_-0.0450.png","B",19,1490842,0.657,"ArrowDown","arrowdown",0
"S001","MullerLyer",-0.37364,-24,"stimuli/MullerLyer_-24.000_-0.37364.png","B",20,1492603,0.411,"ArrowDown","arrowdown",0
"S001","MullerLyer",0.37364,30,"stimuli/MullerLyer_30.0000_0.37364.png","B",21,1494088,0.583,"ArrowUp","arrowup",0
"S001","MullerLyer",0.045,-30,"stimuli/MullerLyer_-30.000_0.04500.png","B",22,1495754,0.384,"ArrowUp","arrowup",0
"S001","MullerLyer",0.24183,18,"stimuli/MullerLyer_18.0000_0.24183.png","B",23,1496966,1.044,"ArrowDown","arrowup",0
"S001","MullerLyer",0.045,-24,"stimuli/MullerLyer_-24.000_0.04500.png","B",24,1498631,0.441,"ArrowUp","arrowup",0
"S001","MullerLyer",0.24183,-12,"stimuli/MullerLyer_-12.000_0.24183.png","B",25,1500121,0.485,"ArrowUp","arrowup",0
"S001","MullerLyer",0.1337,6,"stimuli/MullerLyer_6.00000_0.13370.png","B",26,1501342,0.51,"ArrowUp","arrowup",0
"S001","MullerLyer",0.37364,-12,"stimuli/MullerLyer_-12.000_0.37364.png","B",27,1502772,0.393,"ArrowUp","arrowup",0
"S001","MullerLyer",-0.37364,6,"stimuli/MullerLyer_6.00000_-0.37364.png","B",28,1504243,0.535,"ArrowDown","arrowdown",0
"S001","MullerLyer",-0.045,-30,"stimuli/MullerLyer_-30.000_-0.0450.png","B",29,1505405,0.489,"ArrowDown","arrowdown",0
"S001","MullerLyer",0.045,-18,"stimuli/MullerLyer_-18.000_0.04500.png","B",30,1506894,0.511,"ArrowUp","arrowup",0
"S001","MullerLyer",-0.37364,18,"stimuli/MullerLyer_18.0000_-0.37364.png","B",31,1508086,0.795,"ArrowDown","arrowdown",0
"S001","MullerLyer",-0.1337,18,"stimuli/MullerLyer_18.0000_-0.1337.png","B",32,1509556,0.597,"ArrowUp","arrowdown",0
"S001","MullerLyer",0.37364,24,"stimuli/MullerLyer_24.0000_0.37364.png","B",33,1511034,0.61,"ArrowUp","arrowup",0
"S001","MullerLyer",0.24183,24,"stimuli/MullerLyer_24.0000_0.24183.png","B",34,1512753,0.621,"ArrowDown","arrowup",0
"S001","MullerLyer",-0.1337,-6,"stimuli/MullerLyer_-6.0000_-0.1337.png","B",35,1514181,0.691,"ArrowDown","arrowdown",0
"S001","MullerLyer",-0.1337,24,"stimuli/MullerLyer_24.0000_-0.1337.png","B",36,1515582,0.493,"ArrowUp","arrowdown",0
"S001","MullerLyer",0.37364,-6,"stimuli/MullerLyer_-6.0000_0.37364.png","B",37,1516703,0.449,"ArrowUp","arrowup",0
"S001","MullerLyer",-0.045,12,"stimuli/MullerLyer_12.0000_-0.0450.png","B",38,1517839,0.418,"ArrowUp","arrowdown",0
"S001","MullerLyer",-0.1337,12,"stimuli/MullerLyer_12.0000_-0.1337.png","B",39,1519087,0.371,"ArrowUp","arrowdown",0
"S001","MullerLyer",0.045,-6,"stimuli/MullerLyer_-6.0000_0.04500.png","B",40,1520287,0.535,"ArrowUp","arrowup",0
"S001","MullerLyer",0.1337,-30,"stimuli/MullerLyer_-30.000_0.13370.png","B",41,1521711,0.389,"ArrowUp","arrowup",0
"S001","MullerLyer",0.24183,-6,"stimuli/MullerLyer_-6.0000_0.24183.png","B",42,1522943,0.423,"ArrowUp","arrowup",0
"S001","MullerLyer",0.045,-12,"stimuli/MullerLyer_-12.000_0.04500.png","B",43,1524414,0.361,"ArrowUp","arrowup",0
"S001","MullerLyer",-0.1337,-30,"stimuli/MullerLyer_-30.000_-0.1337.png","B",44,1525509,0.452,"ArrowDown","arrowdown",0
"S001","MullerLyer",-0.045,30,"stimuli/MullerLyer_30.0000_-0.0450.png","B",45,1527035,0.449,"ArrowUp","arrowdown",0
"S001","MullerLyer",-0.045,-12,"stimuli/MullerLyer_-12.000_-0.0450.png","B",46,1528348,0.582,"ArrowDown","arrowdown",0
"S001","MullerLyer",0.1337,12,"stimuli/MullerLyer_12.0000_0.13370.png","B",47,1530028,0.492,"ArrowUp","arrowup",0
"S001","MullerLyer",-0.1337,-12,"stimuli/MullerLyer_-12.000_-0.1337.png","B",48,1531451,0.459,"ArrowDown","arrowdown",0
"S001","MullerLyer",-0.37364,30,"stimuli/MullerLyer_30.0000_-0.37364.png","B",49,1532677,0.663,"ArrowDown","arrowdown",0
"S001","MullerLyer",-0.045,6,"stimuli/MullerLyer_6.00000_-0.0450.png","B",50,1534089,0.6,"ArrowUp","arrowdown",0
"S001","MullerLyer",0.045,24,"stimuli/MullerLyer_24.0000_0.04500.png","B",51,1535674,0.427,"ArrowDown","arrowup",0
"S001","MullerLyer",0.37364,-24,"stimuli/MullerLyer_-24.000_0.37364.png","B",52,1536978,0.448,"ArrowUp","arrowup",0
"S001","MullerLyer",0.1337,-6,"stimuli/MullerLyer_-6.0000_0.13370.png","B",53,1538052,0.539,"ArrowDown","arrowup",0
"S001","MullerLyer",0.37364,18,"stimuli/MullerLyer_18.0000_0.37364.png","B",54,1539325,0.4,"ArrowUp","arrowup",0
"S001","MullerLyer",-0.24183,18,"stimuli/MullerLyer_18.0000_-0.24183.png","B",55,1540633,0.312,"ArrowUp","arrowdown",0
"S001","MullerLyer",0.37364,12,"stimuli/MullerLyer_12.0000_0.37364.png","B",56,1541988,0.338,"ArrowUp","arrowup",0
"S001","MullerLyer",-0.045,-6,"stimuli/MullerLyer_-6.0000_-0.0450.png","B",57,1542965,0.518,"ArrowDown","arrowdown",0
"S001","MullerLyer",0.24183,-18,"stimuli/MullerLyer_-18.000_0.24183.png","B",58,1544283,0.458,"ArrowUp","arrowup",0
"S001","MullerLyer",-0.045,-24,"stimuli/MullerLyer_-24.000_-0.0450.png","B",59,1545859,0.391,"ArrowDown","arrowdown",0
"S001","MullerLyer",0.37364,6,"stimuli/MullerLyer_6.00000_0.37364.png","B",60,1547141,0.347,"ArrowUp","arrowup",0
"S001","MullerLyer",0.24183,12,"stimuli/MullerLyer_12.0000_0.24183.png","B",61,1548564,0.545,"ArrowUp","arrowup",0
"S001","MullerLyer",0.24183,6,"stimuli/MullerLyer_6.00000_0.24183.png","B",62,1550153,0.5,"ArrowUp","arrowup",0
"S001","MullerLyer",0.24183,-24,"stimuli/MullerLyer_-24.000_0.24183.png","B",63,1551428,0.452,"ArrowUp","arrowup",0
"S001","MullerLyer",-0.24183,-24,"stimuli/MullerLyer_-24.000_-0.24183.png","B",64,1552545,0.484,"ArrowDown","arrowdown",0
"S001","MullerLyer",0.1337,-12,"stimuli/MullerLyer_-12.000_0.13370.png","B",65,1553817,0.436,"ArrowUp","arrowup",0
"S001","MullerLyer",-0.24183,-30,"stimuli/MullerLyer_-30.000_-0.24183.png","B",66,1555268,0.403,"ArrowDown","arrowdown",0
"S001","MullerLyer",-0.1337,-24,"stimuli/MullerLyer_-24.000_-0.1337.png","B",67,1556712,0.494,"ArrowDown","arrowdown",0
"S001","MullerLyer",0.045,12,"stimuli/MullerLyer_12.0000_0.04500.png","B",68,1558240,0.334,"ArrowDown","arrowup",0
"S001","MullerLyer",-0.37364,-12,"stimuli/MullerLyer_-12.000_-0.37364.png","B",69,1559317,0.483,"ArrowDown","arrowdown",0
"S001","MullerLyer",0.37364,-18,"stimuli/MullerLyer_-18.000_0.37364.png","B",70,1560443,0.468,"ArrowUp","arrowup",0
"S001","MullerLyer",-0.24183,6,"stimuli/MullerLyer_6.00000_-0.24183.png","B",71,1561973,0.51,"ArrowDown","arrowdown",0
"S001","MullerLyer",0.1337,-24,"stimuli/MullerLyer_-24.000_0.13370.png","B",72,1563543,0.361,"ArrowDown","arrowup",0
"S001","MullerLyer",-0.24183,-18,"stimuli/MullerLyer_-18.000_-0.24183.png","B",73,1564598,0.67,"ArrowDown","arrowdown",0
"S001","MullerLyer",0.1337,24,"stimuli/MullerLyer_24.0000_0.13370.png","B",74,1566032,0.87,"ArrowDown","arrowup",0
"S001","MullerLyer",-0.24183,-12,"stimuli/MullerLyer_-12.000_-0.24183.png","B",75,1567674,0.641,"ArrowDown","arrowdown",0
"S001","MullerLyer",0.37364,-30,"stimuli/MullerLyer_-30.000_0.37364.png","B",76,1569296,0.412,"ArrowUp","arrowup",0
"S001","MullerLyer",0.1337,-18,"stimuli/MullerLyer_-18.000_0.13370.png","B",77,1570581,1.001,"ArrowUp","arrowup",0
"S001","MullerLyer",-0.24183,-6,"stimuli/MullerLyer_-6.0000_-0.24183.png","B",78,1572338,0.484,"ArrowDown","arrowdown",0
"S001","MullerLyer",-0.045,24,"stimuli/MullerLyer_24.0000_-0.0450.png","B",79,1573812,0.459,"ArrowUp","arrowdown",0
"S001","MullerLyer",-0.24183,24,"stimuli/MullerLyer_24.0000_-0.24183.png","B",80,1575135,0.397,"ArrowUp","arrowdown",0
"S001","Ebbinghaus",0.41515,0.6,"stimuli/Ebbinghaus_0.60000_0.41515.png","B",1,1581963,0.773,"ArrowLeft","arrowleft",0
"S001","Ebbinghaus",-0.14856,0.6,"stimuli/Ebbinghaus_0.60000_-0.14856.png","B",2,1583583,0.381,"ArrowRight","arrowright",0
"S001","Ebbinghaus",0.14856,0.3,"stimuli/Ebbinghaus_0.30000_0.14856.png","B",3,1584592,0.626,"ArrowRight","arrowleft",0
"S001","Ebbinghaus",-0.2687,0.6,"stimuli/Ebbinghaus_0.60000_-0.2687.png","B",4,1586248,0.51,"ArrowRight","arrowright",0
"S001","Ebbinghaus",-0.2687,-0.3,"stimuli/Ebbinghaus_-0.3000_-0.2687.png","B",5,1587863,0.555,"ArrowRight","arrowright",0
"S001","Ebbinghaus",0.14856,-0.3,"stimuli/Ebbinghaus_-0.3000_0.14856.png","B",6,1589493,0.587,"ArrowLeft","arrowleft",0
"S001","Ebbinghaus",0.41515,-0.9,"stimuli/Ebbinghaus_-0.9000_0.41515.png","B",7,1590963,0.48,"ArrowLeft","arrowleft",0
"S001","Ebbinghaus",-0.14856,-0.3,"stimuli/Ebbinghaus_-0.3000_-0.14856.png","B",8,1592178,0.493,"ArrowRight","arrowright",0
"S001","Ebbinghaus",-0.2687,0.9,"stimuli/Ebbinghaus_0.90000_-0.2687.png","B",9,1593465,0.442,"ArrowRight","arrowright",0
"S001","Ebbinghaus",0.2687,-1.2,"stimuli/Ebbinghaus_-1.2000_0.26870.png","B",10,1594631,0.438,"ArrowLeft","arrowleft",0
"S001","Ebbinghaus",-0.2687,1.5,"stimuli/Ebbinghaus_1.50000_-0.2687.png","B",11,1595860,0.717,"ArrowRight","arrowright",0
"S001","Ebbinghaus",0.2687,-0.9,"stimuli/Ebbinghaus_-0.9000_0.26870.png","B",12,1597293,0.64,"ArrowLeft","arrowleft",0
"S001","Ebbinghaus",-0.41515,-1.2,"stimuli/Ebbinghaus_-1.2000_-0.41515.png","B",13,1598625,0.545,"ArrowRight","arrowright",0
"S001","Ebbinghaus",0.14856,-1.2,"stimuli/Ebbinghaus_-1.2000_0.14856.png","B",14,1600127,0.545,"ArrowLeft","arrowleft",0
"S001","Ebbinghaus",-0.41515,-1.5,"stimuli/Ebbinghaus_-1.5000_-0.41515.png","B",15,1601525,0.514,"ArrowRight","arrowright",0
"S001","Ebbinghaus",-0.41515,-0.3,"stimuli/Ebbinghaus_-0.3000_-0.41515.png","B",16,1602672,0.633,"ArrowRight","arrowright",0
"S001","Ebbinghaus",-0.2687,-0.6,"stimuli/Ebbinghaus_-0.6000_-0.2687.png","B",17,1604097,0.448,"ArrowRight","arrowright",0
"S001","Ebbinghaus",0.14856,-1.5,"stimuli/Ebbinghaus_-1.5000_0.14856.png","B",18,1605582,0.513,"ArrowLeft","arrowleft",0
"S001","Ebbinghaus",0.41515,1.2,"stimuli/Ebbinghaus_1.20000_0.41515.png","B",19,1607082,0.418,"ArrowLeft","arrowleft",0
"S001","Ebbinghaus",-0.14856,1.2,"stimuli/Ebbinghaus_1.20000_-0.14856.png","B",20,1608413,0.646,"ArrowLeft","arrowright",0
"S001","Ebbinghaus",0.41515,1.5,"stimuli/Ebbinghaus_1.50000_0.41515.png","B",21,1610075,0.824,"ArrowLeft","arrowleft",0
"S001","Ebbinghaus",-0.41515,1.5,"stimuli/Ebbinghaus_1.50000_-0.41515.png","B",22,1611670,0.593,"ArrowRight","arrowright",0
"S001","Ebbinghaus",0.14856,-0.9,"stimuli/Ebbinghaus_-0.9000_0.14856.png","B",23,1613039,0.423,"ArrowLeft","arrowleft",0
"S001","Ebbinghaus",-0.41515,1.2,"stimuli/Ebbinghaus_1.20000_-0.41515.png","B",24,1614273,0.463,"ArrowRight","arrowright",0
"S001","Ebbinghaus",-0.05,0.9,"stimuli/Ebbinghaus_0.90000_-0.0500.png","B",25,1615798,0.302,"ArrowLeft","arrowright",0
"S001","Ebbinghaus",-0.14856,1.5,"stimuli/Ebbinghaus_1.50000_-0.14856.png","B",26,1616912,0.669,"ArrowLeft","arrowright",0
"S001","Ebbinghaus",0.14856,0.6,"stimuli/Ebbinghaus_0.60000_0.14856.png","B",27,1618265,0.635,"ArrowRight","arrowleft",0
"S001","Ebbinghaus",0.2687,1.5,"stimuli/Ebbinghaus_1.50000_0.26870.png","B",28,1619906,0.446,"ArrowLeft","arrowleft",0
"S001","Ebbinghaus",0.05,-1.2,"stimuli/Ebbinghaus_-1.2000_0.05000.png","B",29,1621411,0.708,"ArrowLeft","arrowleft",0
"S001","Ebbinghaus",-0.05,0.3,"stimuli/Ebbinghaus_0.30000_-0.0500.png","B",30,1623017,0.528,"ArrowLeft","arrowright",0
"S001","Ebbinghaus",-0.14856,-0.9,"stimuli/Ebbinghaus_-0.9000_-0.14856.png","B",31,1624589,0.629,"ArrowRight","arrowright",0
"S001","Ebbinghaus",0.41515,-1.2,"stimuli/Ebbinghaus_-1.2000_0.41515.png","B",32,1625903,0.695,"ArrowLeft","arrowleft",0
"S001","Ebbinghaus",0.41515,-1.5,"stimuli/Ebbinghaus_-1.5000_0.41515.png","B",33,1627631,0.462,"ArrowLeft","arrowleft",0
"S001","Ebbinghaus",0.05,-0.6,"stimuli/Ebbinghaus_-0.6000_0.05000.png","B",34,1629045,0.415,"ArrowLeft","arrowleft",0
"S001","Ebbinghaus",0.41515,0.3,"stimuli/Ebbinghaus_0.30000_0.41515.png","B",35,1630378,0.416,"ArrowLeft","arrowleft",0
"S001","Ebbinghaus",0.41515,0.9,"stimuli/Ebbinghaus_0.90000_0.41515.png","B",36,1631840,0.663,"ArrowLeft","arrowleft",0
"S001","Ebbinghaus",-0.2687,0.3,"stimuli/Ebbinghaus_0.30000_-0.2687.png","B",37,1633167,0.659,"ArrowRight","arrowright",0
"S001","Ebbinghaus",0.14856,1.2,"stimuli/Ebbinghaus_1.20000_0.14856.png","B",38,1634909,0.554,"ArrowRight","arrowleft",0
"S001","Ebbinghaus",0.2687,0.9,"stimuli/Ebbinghaus_0.90000_0.26870.png","B",39,1636375,0.569,"ArrowRight","arrowleft",0
"S001","Ebbinghaus",0.05,1.2,"stimuli/Ebbinghaus_1.20000_0.05000.png","B",40,1637999,0.487,"ArrowRight","arrowleft",0
"S001","Ebbinghaus",-0.05,-1.2,"stimuli/Ebbinghaus_-1.2000_-0.0500.png","B",41,1639569,0.576,"ArrowRight","arrowright",0
"S001","Ebbinghaus",0.2687,0.3,"stimuli/Ebbinghaus_0.30000_0.26870.png","B",42,1640813,0.56,"ArrowRight","arrowleft",0
"S001","Ebbinghaus",0.2687,-1.5,"stimuli/Ebbinghaus_-1.5000_0.26870.png","B",43,1642253,0.58,"ArrowLeft","arrowleft",0
"S001","Ebbinghaus",-0.05,-0.6,"stimuli/Ebbinghaus_-0.6000_-0.0500.png","B",44,1643543,0.526,"ArrowRight","arrowright",0
"S001","Ebbinghaus",-0.2687,-1.5,"stimuli/Ebbinghaus_-1.5000_-0.2687.png","B",45,1644752,0.524,"ArrowRight","arrowright",0
"S001","Ebbinghaus",0.05,-1.5,"stimuli/Ebbinghaus_-1.5000_0.05000.png","B",46,1646343,0.49,"ArrowLeft","arrowleft",0
"S001","Ebbinghaus",-0.14856,-1.5,"stimuli/Ebbinghaus_-1.5000_-0.14856.png","B",47,1647553,0.544,"ArrowRight","arrowright",0
"S001","Ebbinghaus",-0.05,1.5,"stimuli/Ebbinghaus_1.50000_-0.0500.png","B",48,1649148,0.552,"ArrowLeft","arrowright",0
"S001","Ebbinghaus",-0.14856,-0.6,"stimuli/Ebbinghaus_-0.6000_-0.14856.png","B",49,1650784,0.554,"ArrowLeft","arrowright",0
"S001","Ebbinghaus",0.41515,-0.6,"stimuli/Ebbinghaus_-0.6000_0.41515.png","B",50,1652332,0.7,"ArrowLeft","arrowleft",0
"S001","Ebbinghaus",-0.14856,-1.2,"stimuli/Ebbinghaus_-1.2000_-0.14856.png","B",51,1653688,0.533,"ArrowRight","arrowright",0
"S001","Ebbinghaus",0.41515,-0.3,"stimuli/Ebbinghaus_-0.3000_0.41515.png","B",52,1654938,0.513,"ArrowLeft","arrowleft",0
"S001","Ebbinghaus",-0.41515,0.6,"stimuli/Ebbinghaus_0.60000_-0.41515.png","B",53,1656490,0.513,"ArrowRight","arrowright",0
"S001","Ebbinghaus",-0.41515,0.9,"stimuli/Ebbinghaus_0.90000_-0.41515.png","B",54,1657715,0.616,"ArrowRight","arrowright",0
"S001","Ebbinghaus",0.2687,-0.3,"stimuli/Ebbinghaus_-0.3000_0.26870.png","B",55,1659347,0.583,"ArrowLeft","arrowleft",0
"S001","Ebbinghaus",0.14856,0.9,"stimuli/Ebbinghaus_0.90000_0.14856.png","B",56,1660744,0.599,"ArrowRight","arrowleft",0
"S001","Ebbinghaus",0.14856,-0.6,"stimuli/Ebbinghaus_-0.6000_0.14856.png","B",57,1662089,0.597,"ArrowLeft","arrowleft",0
"S001","Ebbinghaus",0.2687,0.6,"stimuli/Ebbinghaus_0.60000_0.26870.png","B",58,1663795,0.53,"ArrowLeft","arrowleft",0
"S001","Ebbinghaus",-0.41515,-0.6,"stimuli/Ebbinghaus_-0.6000_-0.41515.png","B",59,1665089,0.532,"ArrowRight","arrowright",0
"S001","Ebbinghaus",-0.05,-1.5,"stimuli/Ebbinghaus_-1.5000_-0.0500.png","B",60,1666685,0.517,"ArrowRight","arrowright",0
"S001","Ebbinghaus",0.14856,1.5,"stimuli/Ebbinghaus_1.50000_0.14856.png","B",61,1667889,0.48,"ArrowRight","arrowleft",0
"S001","Ebbinghaus",0.05,-0.3,"stimuli/Ebbinghaus_-0.3000_0.05000.png","B",62,1669417,0.564,"ArrowLeft","arrowleft",0
"S001","Ebbinghaus",0.05,0.3,"stimuli/Ebbinghaus_0.30000_0.05000.png","B",63,1670658,0.55,"ArrowRight","arrowleft",0
"S001","Ebbinghaus",0.2687,-0.6,"stimuli/Ebbinghaus_-0.6000_0.26870.png","B",64,1672042,0.549,"ArrowLeft","arrowleft",0
"S001","Ebbinghaus",-0.2687,-1.2,"stimuli/Ebbinghaus_-1.2000_-0.2687.png","B",65,1673659,0.485,"ArrowRight","arrowright",0
"S001","Ebbinghaus",-0.05,0.6,"stimuli/Ebbinghaus_0.60000_-0.0500.png","B",66,1674999,0.52,"ArrowLeft","arrowright",0
"S001","Ebbinghaus",0.05,0.9,"stimuli/Ebbinghaus_0.90000_0.05000.png","B",67,1676467,0.49,"ArrowRight","arrowleft",0
"S001","Ebbinghaus",-0.14856,0.9,"stimuli/Ebbinghaus_0.90000_-0.14856.png","B",68,1677878,0.413,"ArrowRight","arrowright",0
"S001","Ebbinghaus",0.05,1.5,"stimuli/Ebbinghaus_1.50000_0.05000.png","B",69,1679113,0.46,"ArrowLeft","arrowleft",0
"S001","Ebbinghaus",0.2687,1.2,"stimuli/Ebbinghaus_1.20000_0.26870.png","B",70,1680472,0.525,"ArrowLeft","arrowleft",0
"S001","Ebbinghaus",0.05,-0.9,"stimuli/Ebbinghaus_-0.9000_0.05000.png","B",71,1681835,0.579,"ArrowLeft","arrowleft",0
"S001","Ebbinghaus",-0.05,-0.3,"stimuli/Ebbinghaus_-0.3000_-0.0500.png","B",72,1683335,0.582,"ArrowRight","arrowright",0
"S001","Ebbinghaus",-0.05,-0.9,"stimuli/Ebbinghaus_-0.9000_-0.0500.png","B",73,1684951,0.489,"ArrowRight","arrowright",0
"S001","Ebbinghaus",-0.2687,1.2,"stimuli/Ebbinghaus_1.20000_-0.2687.png","B",74,1686193,0.434,"ArrowRight","arrowright",0
"S001","Ebbinghaus",-0.05,1.2,"stimuli/Ebbinghaus_1.20000_-0.0500.png","B",75,1687464,0.519,"ArrowLeft","arrowright",0
"S001","Ebbinghaus",-0.41515,-0.9,"stimuli/Ebbinghaus_-0.9000_-0.41515.png","B",76,1688859,0.512,"ArrowRight","arrowright",0
"S001","Ebbinghaus",-0.41515,0.3,"stimuli/Ebbinghaus_0.30000_-0.41515.png","B",77,1690432,0.538,"ArrowRight","arrowright",0
"S001","Ebbinghaus",-0.2687,-0.9,"stimuli/Ebbinghaus_-0.9000_-0.2687.png","B",78,1691829,0.564,"ArrowRight","arrowright",0
"S001","Ebbinghaus",-0.14856,0.3,"stimuli/Ebbinghaus_0.30000_-0.14856.png","B",79,1693479,0.527,"ArrowRight","arrowright",0
"S001","Ebbinghaus",0.05,0.6,"stimuli/Ebbinghaus_0.60000_0.05000.png","B",80,1694696,0.829,"ArrowRight","arrowleft",0
"S001","VerticalHorizontal",-0.03,45,"stimuli/VerticalHorizontal_45.0000_-0.0300.png","B",1,1701748,0.652,"ArrowLeft","arrowright",0
"S001","VerticalHorizontal",-0.03,-9,"stimuli/VerticalHorizontal_-9.0000_-0.0300.png","B",2,1703200,0.598,"ArrowLeft","arrowright",0
"S001","VerticalHorizontal",0.16122,-27,"stimuli/VerticalHorizontal_-27.000_0.16122.png","B",3,1704467,0.411,"ArrowLeft","arrowleft",0
"S001","VerticalHorizontal",-0.24909,45,"stimuli/VerticalHorizontal_45.0000_-0.24909.png","B",4,1705865,0.556,"ArrowLeft","arrowright",0
"S001","VerticalHorizontal",-0.08913,-36,"stimuli/VerticalHorizontal_-36.000_-0.08913.png","B",5,1707167,0.375,"ArrowRight","arrowright",0
"S001","VerticalHorizontal",0.08913,-18,"stimuli/VerticalHorizontal_-18.000_0.08913.png","B",6,1708303,0.376,"ArrowLeft","arrowleft",0
"S001","VerticalHorizontal",0.08913,-45,"stimuli/VerticalHorizontal_-45.000_0.08913.png","B",7,1709731,0.363,"ArrowLeft","arrowleft",0
"S001","VerticalHorizontal",-0.24909,-9,"stimuli/VerticalHorizontal_-9.0000_-0.24909.png","B",8,1711043,0.448,"ArrowRight","arrowright",0
"S001","VerticalHorizontal",-0.08913,-27,"stimuli/VerticalHorizontal_-27.000_-0.08913.png","B",9,1712125,0.478,"ArrowRight","arrowright",0
"S001","VerticalHorizontal",-0.03,9,"stimuli/VerticalHorizontal_9.00000_-0.0300.png","B",10,1713693,0.562,"ArrowLeft","arrowright",0
"S001","VerticalHorizontal",0.08913,-9,"stimuli/VerticalHorizontal_-9.0000_0.08913.png","B",11,1714986,0.404,"ArrowLeft","arrowleft",0
"S001","VerticalHorizontal",-0.24909,-27,"stimuli/VerticalHorizontal_-27.000_-0.24909.png","B",12,1716112,0.356,"ArrowRight","arrowright",0
"S001","VerticalHorizontal",-0.16122,-9,"stimuli/VerticalHorizontal_-9.0000_-0.16122.png","B",13,1717456,0.329,"ArrowRight","arrowright",0
"S001","VerticalHorizontal",0.03,9,"stimuli/VerticalHorizontal_9.00000_0.03000.png","B",14,1718672,0.4,"ArrowRight","arrowleft",0
"S001","VerticalHorizontal",0.08913,18,"stimuli/VerticalHorizontal_18.0000_0.08913.png","B",15,1719683,0.495,"ArrowLeft","arrowleft",0
"S001","VerticalHorizontal",-0.16122,27,"stimuli/VerticalHorizontal_27.0000_-0.16122.png","B",16,1721138,0.476,"ArrowLeft","arrowright",0
"S001","VerticalHorizontal",-0.08913,9,"stimuli/VerticalHorizontal_9.00000_-0.08913.png","B",17,1722448,0.376,"ArrowRight","arrowright",0
"S001","VerticalHorizontal",-0.03,18,"stimuli/VerticalHorizontal_18.0000_-0.0300.png","B",18,1723662,0.432,"ArrowLeft","arrowright",0
"S001","VerticalHorizontal",0.24909,36,"stimuli/VerticalHorizontal_36.0000_0.24909.png","B",19,1725086,0.418,"ArrowRight","arrowleft",0
"S001","VerticalHorizontal",-0.16122,36,"stimuli/VerticalHorizontal_36.0000_-0.16122.png","B",20,1726299,0.497,"ArrowLeft","arrowright",0
"S001","VerticalHorizontal",0.03,-27,"stimuli/VerticalHorizontal_-27.000_0.03000.png","B",21,1727771,0.369,"ArrowLeft","arrowleft",0
"S001","VerticalHorizontal",0.16122,-36,"stimuli/VerticalHorizontal_-36.000_0.16122.png","B",22,1728873,0.485,"ArrowLeft","arrowleft",0
"S001","VerticalHorizontal",-0.08913,-45,"stimuli/VerticalHorizontal_-45.000_-0.08913.png","B",23,1730302,0.438,"ArrowRight","arrowright",0
"S001","VerticalHorizontal",0.24909,-27,"stimuli/VerticalHorizontal_-27.000_0.24909.png","B",24,1731855,0.46,"ArrowLeft","arrowleft",0
"S001","VerticalHorizontal",0.08913,-27,"stimuli/VerticalHorizontal_-27.000_0.08913.png","B",25,1733201,0.365,"ArrowLeft","arrowleft",0
"S001","VerticalHorizontal",-0.16122,9,"stimuli/VerticalHorizontal_9.00000_-0.16122.png","B",26,1734408,0.546,"ArrowRight","arrowright",0
"S001","VerticalHorizontal",0.24909,-9,"stimuli/VerticalHorizontal_-9.0000_0.24909.png","B",27,1735642,0.408,"ArrowLeft","arrowleft",0
"S001","VerticalHorizontal",-0.16122,-36,"stimuli/VerticalHorizontal_-36.000_-0.16122.png","B",28,1737101,0.367,"ArrowRight","arrowright",0
"S001","VerticalHorizontal",0.16122,-9,"stimuli/VerticalHorizontal_-9.0000_0.16122.png","B",29,1738572,0.399,"ArrowLeft","arrowleft",0
"S001","VerticalHorizontal",-0.08913,-9,"stimuli/VerticalHorizontal_-9.0000_-0.08913.png","B",30,1739596,0.519,"ArrowRight","arrowright",0
"S001","VerticalHorizontal",0.03,-9,"stimuli/VerticalHorizontal_-9.0000_0.03000.png","B",31,1740882,0.386,"ArrowLeft","arrowleft",0
"S001","VerticalHorizontal",0.16122,-45,"stimuli/VerticalHorizontal_-45.000_0.16122.png","B",32,1742173,0.377,"ArrowLeft","arrowleft",0
"S001","VerticalHorizontal",-0.03,-27,"stimuli/VerticalHorizontal_-27.000_-0.0300.png","B",33,1743338,0.371,"ArrowRight","arrowright",0
"S001","VerticalHorizontal",0.03,-45,"stimuli/VerticalHorizontal_-45.000_0.03000.png","B",34,1744409,0.499,"ArrowLeft","arrowleft",0
"S001","VerticalHorizontal",0.24909,-36,"stimuli/VerticalHorizontal_-36.000_0.24909.png","B",35,1745635,0.373,"ArrowLeft","arrowleft",0
"S001","VerticalHorizontal",-0.03,-36,"stimuli/VerticalHorizontal_-36.000_-0.0300.png","B",36,1747092,0.527,"ArrowRight","arrowright",0
"S001","VerticalHorizontal",-0.03,36,"stimuli/VerticalHorizontal_36.0000_-0.0300.png","B",37,1748668,0.514,"ArrowLeft","arrowright",0
"S001","VerticalHorizontal",0.24909,45,"stimuli/VerticalHorizontal_45.0000_0.24909.png","B",38,1749808,0.401,"ArrowRight","arrowleft",0
"S001","VerticalHorizontal",-0.03,-45,"stimuli/VerticalHorizontal_-45.000_-0.0300.png","B",39,1750961,0.458,"ArrowRight","arrowright",0
"S001","VerticalHorizontal",-0.08913,-18,"stimuli/VerticalHorizontal_-18.000_-0.08913.png","B",40,1752168,0.517,"ArrowRight","arrowright",0
"S001","VerticalHorizontal",0.08913,27,"stimuli/VerticalHorizontal_27.0000_0.08913.png","B",41,1753429,0.422,"ArrowRight","arrowleft",0
"S001","VerticalHorizontal",-0.08913,36,"stimuli/VerticalHorizontal_36.0000_-0.08913.png","B",42,1754764,0.324,"ArrowRight","arrowright",0
"S001","VerticalHorizontal",0.08913,45,"stimuli/VerticalHorizontal_45.0000_0.08913.png","B",43,1755734,0.482,"ArrowRight","arrowleft",0
"S001","VerticalHorizontal",0.03,18,"stimuli/VerticalHorizontal_18.0000_0.03000.png","B",44,1757083,0.758,"ArrowLeft","arrowleft",0
"S001","VerticalHorizontal",0.24909,18,"stimuli/VerticalHorizontal_18.0000_0.24909.png","B",45,1758609,0.408,"ArrowLeft","arrowleft",0
"S001","VerticalHorizontal",-0.16122,-45,"stimuli/VerticalHorizontal_-45.000_-0.16122.png","B",46,1759721,0.392,"ArrowRight","arrowright",0
"S001","VerticalHorizontal",-0.08913,45,"stimuli/VerticalHorizontal_45.0000_-0.08913.png","B",47,1760961,0.468,"ArrowLeft","arrowright",0
"S001","VerticalHorizontal",-0.24909,-45,"stimuli/VerticalHorizontal_-45.000_-0.24909.png","B",48,1762200,0.375,"ArrowRight","arrowright",0
"S001","VerticalHorizontal",-0.24909,9,"stimuli/VerticalHorizontal_9.00000_-0.24909.png","B",49,1763371,0.322,"ArrowLeft","arrowright",0
"S001","VerticalHorizontal",-0.24909,36,"stimuli/VerticalHorizontal_36.0000_-0.24909.png","B",50,1764611,0.505,"ArrowLeft","arrowright",0
"S001","VerticalHorizontal",-0.03,-18,"stimuli/VerticalHorizontal_-18.000_-0.0300.png","B",51,1765752,0.377,"ArrowRight","arrowright",0
"S001","VerticalHorizontal",0.24909,27,"stimuli/VerticalHorizontal_27.0000_0.24909.png","B",52,1766973,0.465,"ArrowLeft","arrowleft",0
"S001","VerticalHorizontal",-0.24909,-18,"stimuli/VerticalHorizontal_-18.000_-0.24909.png","B",53,1768179,0.446,"ArrowRight","arrowright",0
"S001","VerticalHorizontal",0.24909,9,"stimuli/VerticalHorizontal_9.00000_0.24909.png","B",54,1769311,0.502,"ArrowLeft","arrowleft",0
"S001","VerticalHorizontal",0.08913,-36,"stimuli/VerticalHorizontal_-36.000_0.08913.png","B",55,1770496,0.485,"ArrowLeft","arrowleft",0
"S001","VerticalHorizontal",0.03,45,"stimuli/VerticalHorizontal_45.0000_0.03000.png","B",56,1771661,0.412,"ArrowRight","arrowleft",0
"S001","VerticalHorizontal",0.08913,36,"stimuli/VerticalHorizontal_36.0000_0.08913.png","B",57,1772832,0.429,"ArrowRight","arrowleft",0
"S001","VerticalHorizontal",-0.24909,27,"stimuli/VerticalHorizontal_27.0000_-0.24909.png","B",58,1773998,0.585,"ArrowLeft","arrowright",0
"S001","VerticalHorizontal",-0.08913,18,"stimuli/VerticalHorizontal_18.0000_-0.08913.png","B",59,1775351,0.564,"ArrowRight","arrowright",0
"S001","VerticalHorizontal",0.16122,-18,"stimuli/VerticalHorizontal_-18.000_0.16122.png","B",60,1776524,0.505,"ArrowLeft","arrowleft",0
"S001","VerticalHorizontal",0.08913,9,"stimuli/VerticalHorizontal_9.00000_0.08913.png","B",61,1777721,0.44,"ArrowLeft","arrowleft",0
"S001","VerticalHorizontal",0.16122,9,"stimuli/VerticalHorizontal_9.00000_0.16122.png","B",62,1778823,0.422,"ArrowLeft","arrowleft",0
"S001","VerticalHorizontal",0.03,-36,"stimuli/VerticalHorizontal_-36.000_0.03000.png","B",63,1780348,0.359,"ArrowLeft","arrowleft",0
"S001","VerticalHorizontal",-0.03,27,"stimuli/VerticalHorizontal_27.0000_-0.0300.png","B",64,1781690,0.458,"ArrowLeft","arrowright",0
"S001","VerticalHorizontal",-0.16122,45,"stimuli/VerticalHorizontal_45.0000_-0.16122.png","B",65,1783111,0.367,"ArrowLeft","arrowright",0
"S001","VerticalHorizontal",0.24909,-18,"stimuli/VerticalHorizontal_-18.000_0.24909.png","B",66,1784323,0.374,"ArrowLeft","arrowleft",0
"S001","VerticalHorizontal",-0.08913,27,"stimuli/VerticalHorizontal_27.0000_-0.08913.png","B",67,1785379,0.39,"ArrowLeft","arrowright",0
"S001","VerticalHorizontal",-0.24909,18,"stimuli/VerticalHorizontal_18.0000_-0.24909.png","B",68,1786391,0.851,"ArrowRight","arrowright",0
"S001","VerticalHorizontal",-0.16122,-18,"stimuli/VerticalHorizontal_-18.000_-0.16122.png","B",69,1787852,0.681,"ArrowRight","arrowright",0
"S001","VerticalHorizontal",-0.24909,-36,"stimuli/VerticalHorizontal_-36.000_-0.24909.png","B",70,1789336,0.505,"ArrowRight","arrowright",0
"S001","VerticalHorizontal",0.03,27,"stimuli/VerticalHorizontal_27.0000_0.03000.png","B",71,1790477,0.437,"ArrowRight","arrowleft",0
"S001","VerticalHorizontal",0.24909,-45,"stimuli/VerticalHorizontal_-45.000_0.24909.png","B",72,1792002,0.42,"ArrowLeft","arrowleft",0
"S001","VerticalHorizontal",-0.16122,-27,"stimuli/VerticalHorizontal_-27.000_-0.16122.png","B",73,1793036,0.446,"ArrowRight","arrowright",0
"S001","VerticalHorizontal",0.16122,27,"stimuli/VerticalHorizontal_27.0000_0.16122.png","B",74,1794294,0.37,"ArrowLeft","arrowleft",0
"S001","VerticalHorizontal",0.16122,45,"stimuli/VerticalHorizontal_45.0000_0.16122.png","B",75,1795448,0.481,"ArrowRight","arrowleft",0
"S001","VerticalHorizontal",-0.16122,18,"stimuli/VerticalHorizontal_18.0000_-0.16122.png","B",76,1796851,0.705,"ArrowLeft","arrowright",0
"S001","VerticalHorizontal",0.03,-18,"stimuli/VerticalHorizontal_-18.000_0.03000.png","B",77,1798528,0.435,"ArrowLeft","arrowleft",0
"S001","VerticalHorizontal",0.16122,18,"stimuli/VerticalHorizontal_18.0000_0.16122.png","B",78,1799612,0.614,"ArrowLeft","arrowleft",0
"S001","VerticalHorizontal",0.03,36,"stimuli/VerticalHorizontal_36.0000_0.03000.png","B",79,1800953,0.569,"ArrowLeft","arrowleft",0
"S001","VerticalHorizontal",0.16122,36,"stimuli/VerticalHorizontal_36.0000_0.16122.png","B",80,1802553,0.972,"ArrowRight","arrowleft",0
"S001","MullerLyer",-0.18509,-21,"stimuli/MullerLyer_-21.000_-0.18509.png","A",1,2015998,0.749,"ArrowDown","arrowdown",0
"S001","MullerLyer",-0.30447,3,"stimuli/MullerLyer_3.00000_-0.30447.png","A",2,2017668,0.516,"ArrowDown","arrowdown",0
"S001","MullerLyer",-0.08716,21,"stimuli/MullerLyer_21.0000_-0.08716.png","A",3,2018917,0.44,"ArrowUp","arrowdown",0
"S001","MullerLyer",-0.08716,-15,"stimuli/MullerLyer_-15.000_-0.08716.png","A",4,2020383,0.52,"ArrowDown","arrowdown",0
"S001","MullerLyer",0.30447,-9,"stimuli/MullerLyer_-9.0000_0.30447.png","A",5,2021627,0.603,"ArrowUp","arrowup",0
"S001","MullerLyer",0.08716,15,"stimuli/MullerLyer_15.0000_0.08716.png","A",6,2023064,0.475,"ArrowUp","arrowup",0
"S001","MullerLyer",-0.45,-15,"stimuli/MullerLyer_-15.000_-0.4500.png","A",7,2024193,0.975,"ArrowDown","arrowdown",0
"S001","MullerLyer",0.45,-15,"stimuli/MullerLyer_-15.000_0.45000.png","A",8,2025857,0.483,"ArrowUp","arrowup",0
"S001","MullerLyer",0.30447,21,"stimuli/MullerLyer_21.0000_0.30447.png","A",9,2027003,0.514,"ArrowUp","arrowup",0
"S001","MullerLyer",0.45,9,"stimuli/MullerLyer_9.00000_0.45000.png","A",10,2028551,0.393,"ArrowUp","arrowup",0
"S001","MullerLyer",-0.45,-9,"stimuli/MullerLyer_-9.0000_-0.4500.png","A",11,2029719,0.495,"ArrowDown","arrowdown",0
"S001","MullerLyer",-0.18509,15,"stimuli/MullerLyer_15.0000_-0.18509.png","A",12,2031057,0.48,"ArrowUp","arrowdown",0
"S001","MullerLyer",-0.30447,15,"stimuli/MullerLyer_15.0000_-0.30447.png","A",13,2032552,0.448,"ArrowUp","arrowdown",0
"S001","MullerLyer",0.08716,27,"stimuli/MullerLyer_27.0000_0.08716.png","A",14,2033861,0.446,"ArrowDown","arrowup",0
"S001","MullerLyer",-0.45,-21,"stimuli/MullerLyer_-21.000_-0.4500.png","A",15,2035311,0.438,"ArrowDown","arrowdown",0
"S001","MullerLyer",-0.18509,3,"stimuli/MullerLyer_3.00000_-0.18509.png","A",16,2036793,0.501,"ArrowDown","arrowdown",0
"S001","MullerLyer",0.18509,9,"stimuli/MullerLyer_9.00000_0.18509.png","A",17,2038165,0.434,"ArrowUp","arrowup",0
"S001","MullerLyer",-0.08716,9,"stimuli/MullerLyer_9.00000_-0.08716.png","A",18,2039243,0.453,"ArrowUp","arrowdown",0
"S001","MullerLyer",-0.45,15,"stimuli/MullerLyer_15.0000_-0.4500.png","A",19,2040476,0.538,"ArrowDown","arrowdown",0
"S001","MullerLyer",-0.45,9,"stimuli/MullerLyer_9.00000_-0.4500.png","A",20,2042062,0.441,"ArrowDown","arrowdown",0
"S001","MullerLyer",0.08716,-21,"stimuli/MullerLyer_-21.000_0.08716.png","A",21,2043435,0.523,"ArrowUp","arrowup",0
"S001","MullerLyer",-0.30447,21,"stimuli/MullerLyer_21.0000_-0.30447.png","A",22,2044961,0.453,"ArrowUp","arrowdown",0
"S001","MullerLyer",0.45,3,"stimuli/MullerLyer_3.00000_0.45000.png","A",23,2046499,0.428,"ArrowUp","arrowup",0
"S001","MullerLyer",0.08716,-3,"stimuli/MullerLyer_-3.0000_0.08716.png","A",24,2047861,0.461,"ArrowUp","arrowup",0
"S001","MullerLyer",0.45,21,"stimuli/MullerLyer_21.0000_0.45000.png","A",25,2049118,0.5,"ArrowUp","arrowup",0
"S001","MullerLyer",-0.08716,3,"stimuli/MullerLyer_3.00000_-0.08716.png","A",26,2050585,0.563,"ArrowDown","arrowdown",0
"S001","MullerLyer",0.08716,3,"stimuli/MullerLyer_3.00000_0.08716.png","A",27,2051881,0.632,"ArrowDown","arrowup",0
"S001","MullerLyer",0.30447,-15,"stimuli/MullerLyer_-15.000_0.30447.png","A",28,2053375,0.614,"ArrowUp","arrowup",0
"S001","MullerLyer",0.18509,3,"stimuli/MullerLyer_3.00000_0.18509.png","A",29,2054900,0.65,"ArrowUp","arrowup",0
"S001","MullerLyer",0.30447,15,"stimuli/MullerLyer_15.0000_0.30447.png","A",30,2056420,0.53,"ArrowUp","arrowup",0
"S001","MullerLyer",0.18509,21,"stimuli/MullerLyer_21.0000_0.18509.png","A",31,2058033,0.558,"ArrowDown","arrowup",0
"S001","MullerLyer",0.30447,3,"stimuli/MullerLyer_3.00000_0.30447.png","A",32,2059343,0.492,"ArrowUp","arrowup",0
"S001","MullerLyer",0.30447,-21,"stimuli/MullerLyer_-21.000_0.30447.png","A",33,2060886,0.447,"ArrowUp","arrowup",0
"S001","MullerLyer",0.18509,-21,"stimuli/MullerLyer_-21.000_0.18509.png","A",34,2062336,0.459,"ArrowUp","arrowup",0
"S001","MullerLyer",0.18509,-27,"stimuli/MullerLyer_-27.000_0.18509.png","A",35,2063541,0.408,"ArrowUp","arrowup",0
"S001","MullerLyer",0.08716,9,"stimuli/MullerLyer_9.00000_0.08716.png","A",36,2064768,0.603,"ArrowDown","arrowup",0
"S001","MullerLyer",0.18509,-9,"stimuli/MullerLyer_-9.0000_0.18509.png","A",37,2066218,0.369,"ArrowUp","arrowup",0
"S001","MullerLyer",0.30447,27,"stimuli/MullerLyer_27.0000_0.30447.png","A",38,2067321,0.462,"ArrowUp","arrowup",0
"S001","MullerLyer",0.45,27,"stimuli/MullerLyer_27.0000_0.45000.png","A",39,2068618,0.676,"ArrowUp","arrowup",0
"S001","MullerLyer",-0.30447,-3,"stimuli/MullerLyer_-3.0000_-0.30447.png","A",40,2070223,0.658,"ArrowDown","arrowdown",0
"S001","MullerLyer",-0.18509,21,"stimuli/MullerLyer_21.0000_-0.18509.png","A",41,2071787,0.48,"ArrowUp","arrowdown",0
"S001","MullerLyer",0.18509,-3,"stimuli/MullerLyer_-3.0000_0.18509.png","A",42,2072903,0.553,"ArrowUp","arrowup",0
"S001","MullerLyer",-0.08716,27,"stimuli/MullerLyer_27.0000_-0.08716.png","A",43,2074108,2.382,"ArrowUp","arrowdown",0
"S001","MullerLyer",0.08716,21,"stimuli/MullerLyer_21.0000_0.08716.png","A",44,2077233,1.047,"ArrowUp","arrowup",0
"S001","MullerLyer",0.30447,-3,"stimuli/MullerLyer_-3.0000_0.30447.png","A",45,2079179,0.586,"ArrowUp","arrowup",0
"S001","MullerLyer",-0.30447,-9,"stimuli/MullerLyer_-9.0000_-0.30447.png","A",46,2080776,0.706,"ArrowDown","arrowdown",0
"S001","MullerLyer",-0.30447,9,"stimuli/MullerLyer_9.00000_-0.30447.png","A",47,2082289,0.585,"ArrowDown","arrowdown",0
"S001","MullerLyer",0.18509,15,"stimuli/MullerLyer_15.0000_0.18509.png","A",48,2083882,0.55,"ArrowUp","arrowup",0
"S001","MullerLyer",-0.30447,-21,"stimuli/MullerLyer_-21.000_-0.30447.png","A",49,2085401,0.486,"ArrowDown","arrowdown",0
"S001","MullerLyer",-0.30447,-27,"stimuli/MullerLyer_-27.000_-0.30447.png","A",50,2086625,0.521,"ArrowDown","arrowdown",0
"S001","MullerLyer",0.45,-27,"stimuli/MullerLyer_-27.000_0.45000.png","A",51,2088029,0.467,"ArrowUp","arrowup",0
"S001","MullerLyer",0.18509,-15,"stimuli/MullerLyer_-15.000_0.18509.png","A",52,2089538,0.534,"ArrowUp","arrowup",0
"S001","MullerLyer",0.45,15,"stimuli/MullerLyer_15.0000_0.45000.png","A",53,2091013,0.618,"ArrowUp","arrowup",0
"S001","MullerLyer",0.08716,-27,"stimuli/MullerLyer_-27.000_0.08716.png","A",54,2092463,0.207,"ArrowUp","arrowup",0
"S001","MullerLyer",-0.30447,27,"stimuli/MullerLyer_27.0000_-0.30447.png","A",55,2093505,0.611,"ArrowDown","arrowdown",0
"S001","MullerLyer",-0.08716,15,"stimuli/MullerLyer_15.0000_-0.08716.png","A",56,2094879,0.501,"ArrowUp","arrowdown",0
"S001","MullerLyer",0.45,-3,"stimuli/MullerLyer_-3.0000_0.45000.png","A",57,2096142,0.573,"ArrowUp","arrowup",0
"S001","MullerLyer",-0.08716,-27,"stimuli/MullerLyer_-27.000_-0.08716.png","A",58,2097765,0.539,"ArrowDown","arrowdown",0
"S001","MullerLyer",0.08716,-15,"stimuli/MullerLyer_-15.000_0.08716.png","A",59,2099411,0.462,"ArrowUp","arrowup",0
"S001","MullerLyer",-0.18509,-9,"stimuli/MullerLyer_-9.0000_-0.18509.png","A",60,2100620,0.578,"ArrowDown","arrowdown",0
"S001","MullerLyer",0.30447,-27,"stimuli/MullerLyer_-27.000_0.30447.png","A",61,2101878,0.465,"ArrowUp","arrowup",0
"S001","MullerLyer",-0.18509,-3,"stimuli/MullerLyer_-3.0000_-0.18509.png","A",62,2103041,0.6,"ArrowDown","arrowdown",0
"S001","MullerLyer",-0.08716,-9,"stimuli/MullerLyer_-9.0000_-0.08716.png","A",63,2104615,0.541,"ArrowDown","arrowdown",0
"S001","MullerLyer",-0.08716,-21,"stimuli/MullerLyer_-21.000_-0.08716.png","A",64,2106017,0.6,"ArrowDown","arrowdown",0
"S001","MullerLyer",0.08716,-9,"stimuli/MullerLyer_-9.0000_0.08716.png","A",65,2107314,0.905,"ArrowUp","arrowup",0
"S001","MullerLyer",-0.45,27,"stimuli/MullerLyer_27.0000_-0.4500.png","A",66,2109052,0.55,"ArrowDown","arrowdown",0
"S001","MullerLyer",0.45,-9,"stimuli/MullerLyer_-9.0000_0.45000.png","A",67,2110339,0.512,"ArrowUp","arrowup",0
"S001","MullerLyer",-0.45,-27,"stimuli/MullerLyer_-27.000_-0.4500.png","A",68,2111513,0.515,"ArrowDown","arrowdown",0
"S001","MullerLyer",-0.18509,-15,"stimuli/MullerLyer_-15.000_-0.18509.png","A",69,2112715,0.57,"ArrowDown","arrowdown",0
"S001","MullerLyer",-0.45,-3,"stimuli/MullerLyer_-3.0000_-0.4500.png","A",70,2113905,0.438,"ArrowDown","arrowdown",0
"S001","MullerLyer",0.30447,9,"stimuli/MullerLyer_9.00000_0.30447.png","A",71,2115188,0.483,"ArrowUp","arrowup",0
"S001","MullerLyer",-0.18509,-27,"stimuli/MullerLyer_-27.000_-0.18509.png","A",72,2116777,0.482,"ArrowDown","arrowdown",0
"S001","MullerLyer",-0.08716,-3,"stimuli/MullerLyer_-3.0000_-0.08716.png","A",73,2118112,0.611,"ArrowUp","arrowdown",0
"S001","MullerLyer",0.45,-21,"stimuli/MullerLyer_-21.000_0.45000.png","A",74,2119779,0.542,"ArrowUp","arrowup",0
"S001","MullerLyer",-0.18509,9,"stimuli/MullerLyer_9.00000_-0.18509.png","A",75,2120941,0.501,"ArrowDown","arrowdown",0
"S001","MullerLyer",0.18509,27,"stimuli/MullerLyer_27.0000_0.18509.png","A",76,2122414,0.433,"ArrowDown","arrowup",0
"S001","MullerLyer",-0.30447,-15,"stimuli/MullerLyer_-15.000_-0.30447.png","A",77,2123472,0.471,"ArrowDown","arrowdown",0
"S001","MullerLyer",-0.18509,27,"stimuli/MullerLyer_27.0000_-0.18509.png","A",78,2124723,0.474,"ArrowUp","arrowdown",0
"S001","MullerLyer",-0.45,3,"stimuli/MullerLyer_3.00000_-0.4500.png","A",79,2125902,0.4,"ArrowDown","arrowdown",0
"S001","MullerLyer",-0.45,21,"stimuli/MullerLyer_21.0000_-0.4500.png","A",80,2127208,0.594,"ArrowDown","arrowdown",0
"S001","Ebbinghaus",0.09684,-1.35,"stimuli/Ebbinghaus_-1.3500_0.09684.png","A",1,2133833,0.927,"ArrowLeft","arrowleft",0
"S001","Ebbinghaus",0.09684,-0.15,"stimuli/Ebbinghaus_-0.1500_0.09684.png","A",2,2135638,0.535,"ArrowLeft","arrowleft",0
"S001","Ebbinghaus",-0.09684,-0.45,"stimuli/Ebbinghaus_-0.4500_-0.09684.png","A",3,2137015,0.489,"ArrowRight","arrowright",0
"S001","Ebbinghaus",-0.5,0.45,"stimuli/Ebbinghaus_0.45000_-0.5000.png","A",4,2138183,0.464,"ArrowRight","arrowright",0
"S001","Ebbinghaus",0.5,1.05,"stimuli/Ebbinghaus_1.05000_0.50000.png","A",5,2139601,0.425,"ArrowLeft","arrowleft",0
"S001","Ebbinghaus",-0.5,-0.75,"stimuli/Ebbinghaus_-0.7500_-0.5000.png","A",6,2141006,0.55,"ArrowRight","arrowright",0
"S001","Ebbinghaus",0.20566,0.75,"stimuli/Ebbinghaus_0.75000_0.20566.png","A",7,2142373,0.75,"ArrowLeft","arrowleft",0
"S001","Ebbinghaus",-0.09684,0.15,"stimuli/Ebbinghaus_0.15000_-0.09684.png","A",8,2143858,0.596,"ArrowRight","arrowright",0
"S001","Ebbinghaus",-0.3383,1.05,"stimuli/Ebbinghaus_1.05000_-0.3383.png","A",9,2145418,0.709,"ArrowRight","arrowright",0
"S001","Ebbinghaus",-0.20566,-0.15,"stimuli/Ebbinghaus_-0.1500_-0.20566.png","A",10,2147186,0.446,"ArrowRight","arrowright",0
"S001","Ebbinghaus",0.3383,-1.35,"stimuli/Ebbinghaus_-1.3500_0.33830.png","A",11,2148256,0.535,"ArrowLeft","arrowleft",0
"S001","Ebbinghaus",0.20566,-1.35,"stimuli/Ebbinghaus_-1.3500_0.20566.png","A",12,2149405,0.44,"ArrowLeft","arrowleft",0
"S001","Ebbinghaus",-0.20566,-0.75,"stimuli/Ebbinghaus_-0.7500_-0.20566.png","A",13,2150649,0.437,"ArrowRight","arrowright",0
"S001","Ebbinghaus",-0.3383,-1.35,"stimuli/Ebbinghaus_-1.3500_-0.3383.png","A",14,2151843,0.469,"ArrowRight","arrowright",0
"S001","Ebbinghaus",0.20566,0.15,"stimuli/Ebbinghaus_0.15000_0.20566.png","A",15,2153206,0.61,"ArrowLeft","arrowleft",0
"S001","Ebbinghaus",0.3383,-0.75,"stimuli/Ebbinghaus_-0.7500_0.33830.png","A",16,2154878,0.488,"ArrowLeft","arrowleft",0
"S001","Ebbinghaus",-0.20566,0.75,"stimuli/Ebbinghaus_0.75000_-0.20566.png","A",17,2156115,0.588,"ArrowLeft","arrowright",0
"S001","Ebbinghaus",0.3383,0.15,"stimuli/Ebbinghaus_0.15000_0.33830.png","A",18,2157648,0.45,"ArrowLeft","arrowleft",0
"S001","Ebbinghaus",-0.09684,-1.35,"stimuli/Ebbinghaus_-1.3500_-0.09684.png","A",19,2159171,0.495,"ArrowRight","arrowright",0
"S001","Ebbinghaus",0.09684,0.15,"stimuli/Ebbinghaus_0.15000_0.09684.png","A",20,2160452,0.616,"ArrowLeft","arrowleft",0
"S001","Ebbinghaus",0.3383,1.35,"stimuli/Ebbinghaus_1.35000_0.33830.png","A",21,2162008,0.574,"ArrowLeft","arrowleft",0
"S001","Ebbinghaus",0.5,-1.35,"stimuli/Ebbinghaus_-1.3500_0.50000.png","A",22,2163405,0.622,"ArrowLeft","arrowleft",0
"S001","Ebbinghaus",-0.3383,0.45,"stimuli/Ebbinghaus_0.45000_-0.3383.png","A",23,2164738,0.612,"ArrowRight","arrowright",0
"S001","Ebbinghaus",0.20566,-0.15,"stimuli/Ebbinghaus_-0.1500_0.20566.png","A",24,2166373,0.492,"ArrowLeft","arrowleft",0
"S001","Ebbinghaus",-0.5,-0.15,"stimuli/Ebbinghaus_-0.1500_-0.5000.png","A",25,2167528,0.52,"ArrowRight","arrowright",0
"S001","Ebbinghaus",-0.09684,0.75,"stimuli/Ebbinghaus_0.75000_-0.09684.png","A",26,2168947,0.619,"ArrowLeft","arrowright",0
"S001","Ebbinghaus",-0.3383,1.35,"stimuli/Ebbinghaus_1.35000_-0.3383.png","A",27,2170532,0.626,"ArrowLeft","arrowright",0
"S001","Ebbinghaus",0.09684,1.05,"stimuli/Ebbinghaus_1.05000_0.09684.png","A",28,2172123,0.52,"ArrowLeft","arrowleft",0
"S001","Ebbinghaus",0.09684,0.45,"stimuli/Ebbinghaus_0.45000_0.09684.png","A",29,2173445,0.641,"ArrowRight","arrowleft",0
"S001","Ebbinghaus",-0.09684,-0.15,"stimuli/Ebbinghaus_-0.1500_-0.09684.png","A",30,2174979,0.672,"ArrowRight","arrowright",0
"S001","Ebbinghaus",-0.5,-1.35,"stimuli/Ebbinghaus_-1.3500_-0.5000.png","A",31,2176592,0.456,"ArrowRight","arrowright",0
"S001","Ebbinghaus",-0.3383,-0.45,"stimuli/Ebbinghaus_-0.4500_-0.3383.png","A",32,2177801,0.498,"ArrowRight","arrowright",0
"S001","Ebbinghaus",0.5,0.45,"stimuli/Ebbinghaus_0.45000_0.50000.png","A",33,2179082,0.577,"ArrowLeft","arrowleft",0
"S001","Ebbinghaus",-0.20566,-0.45,"stimuli/Ebbinghaus_-0.4500_-0.20566.png","A",34,2180482,0.525,"ArrowRight","arrowright",0
"S001","Ebbinghaus",-0.09684,1.05,"stimuli/Ebbinghaus_1.05000_-0.09684.png","A",35,2181658,0.48,"ArrowLeft","arrowright",0
"S001","Ebbinghaus",-0.3383,0.15,"stimuli/Ebbinghaus_0.15000_-0.3383.png","A",36,2182863,0.575,"ArrowRight","arrowright",0
"S001","Ebbinghaus",-0.09684,-1.05,"stimuli/Ebbinghaus_-1.0500_-0.09684.png","A",37,2184165,0.538,"ArrowRight","arrowright",0
"S001","Ebbinghaus",0.20566,0.45,"stimuli/Ebbinghaus_0.45000_0.20566.png","A",38,2185581,0.595,"ArrowRight","arrowleft",0
"S001","Ebbinghaus",0.09684,-1.05,"stimuli/Ebbinghaus_-1.0500_0.09684.png","A",39,2186899,0.65,"ArrowLeft","arrowleft",0
"S001","Ebbinghaus",-0.3383,-0.75,"stimuli/Ebbinghaus_-0.7500_-0.3383.png","A",40,2188358,0.552,"ArrowRight","arrowright",0
"S001","Ebbinghaus",0.5,0.15,"stimuli/Ebbinghaus_0.15000_0.50000.png","A",41,2189608,0.43,"ArrowLeft","arrowleft",0
"S001","Ebbinghaus",0.09684,0.75,"stimuli/Ebbinghaus_0.75000_0.09684.png","A",42,2190901,0.669,"ArrowRight","arrowleft",0
"S001","Ebbinghaus",0.09684,-0.75,"stimuli/Ebbinghaus_-0.7500_0.09684.png","A",43,2192614,0.499,"ArrowLeft","arrowleft",0
"S001","Ebbinghaus",-0.3383,-0.15,"stimuli/Ebbinghaus_-0.1500_-0.3383.png","A",44,2193776,0.439,"ArrowRight","arrowright",0
"S001","Ebbinghaus",-0.20566,0.15,"stimuli/Ebbinghaus_0.15000_-0.20566.png","A",45,2195118,0.563,"ArrowRight","arrowright",0
"S001","Ebbinghaus",-0.3383,0.75,"stimuli/Ebbinghaus_0.75000_-0.3383.png","A",46,2196779,0.473,"ArrowRight","arrowright",0
"S001","Ebbinghaus",0.3383,0.75,"stimuli/Ebbinghaus_0.75000_0.33830.png","A",47,2197991,0.58,"ArrowLeft","arrowleft",0
"S001","Ebbinghaus",0.5,-0.75,"stimuli/Ebbinghaus_-0.7500_0.50000.png","A",48,2199596,0.457,"ArrowLeft","arrowleft",0
"S001","Ebbinghaus",-0.20566,-1.05,"stimuli/Ebbinghaus_-1.0500_-0.20566.png","A",49,2200765,0.421,"ArrowRight","arrowright",0
"S001","Ebbinghaus",-0.20566,1.35,"stimuli/Ebbinghaus_1.35000_-0.20566.png","A",50,2202024,0.541,"ArrowLeft","arrowright",0
"S001","Ebbinghaus",-0.5,1.05,"stimuli/Ebbinghaus_1.05000_-0.5000.png","A",51,2203343,0.45,"ArrowRight","arrowright",0
"S001","Ebbinghaus",0.3383,-0.15,"stimuli/Ebbinghaus_-0.1500_0.33830.png","A",52,2204448,0.478,"ArrowLeft","arrowleft",0
"S001","Ebbinghaus",0.5,0.75,"stimuli/Ebbinghaus_0.75000_0.50000.png","A",53,2205891,0.51,"ArrowLeft","arrowleft",0
"S001","Ebbinghaus",-0.20566,1.05,"stimuli/Ebbinghaus_1.05000_-0.20566.png","A",54,2207114,0.864,"ArrowLeft","arrowright",0
"S001","Ebbinghaus",0.3383,-0.45,"stimuli/Ebbinghaus_-0.4500_0.33830.png","A",55,2208859,0.525,"ArrowLeft","arrowleft",0
"S001","Ebbinghaus",0.3383,0.45,"stimuli/Ebbinghaus_0.45000_0.33830.png","A",56,2210000,0.636,"ArrowLeft","arrowleft",0
"S001","Ebbinghaus",-0.09684,1.35,"stimuli/Ebbinghaus_1.35000_-0.09684.png","A",57,2211362,0.615,"ArrowLeft","arrowright",0
"S001","Ebbinghaus",0.09684,1.35,"stimuli/Ebbinghaus_1.35000_0.09684.png","A",58,2212613,1.333,"ArrowRight","arrowleft",0
"S001","Ebbinghaus",0.20566,1.05,"stimuli/Ebbinghaus_1.05000_0.20566.png","A",59,2214933,0.57,"ArrowLeft","arrowleft",0
"S001","Ebbinghaus",-0.5,-0.45,"stimuli/Ebbinghaus_-0.4500_-0.5000.png","A",60,2216493,0.515,"ArrowRight","arrowright",0
"S001","Ebbinghaus",0.20566,-0.45,"stimuli/Ebbinghaus_-0.4500_0.20566.png","A",61,2217743,0.534,"ArrowLeft","arrowleft",0
"S001","Ebbinghaus",0.20566,-1.05,"stimuli/Ebbinghaus_-1.0500_0.20566.png","A",62,2219263,0.682,"ArrowLeft","arrowleft",0
"S001","Ebbinghaus",-0.09684,-0.75,"stimuli/Ebbinghaus_-0.7500_-0.09684.png","A",63,2220802,0.598,"ArrowRight","arrowright",0
"S001","Ebbinghaus",0.20566,1.35,"stimuli/Ebbinghaus_1.35000_0.20566.png","A",64,2222405,0.457,"ArrowLeft","arrowleft",0
"S001","Ebbinghaus",-0.5,-1.05,"stimuli/Ebbinghaus_-1.0500_-0.5000.png","A",65,2223923,0.435,"ArrowRight","arrowright",0
"S001","Ebbinghaus",0.5,-1.05,"stimuli/Ebbinghaus_-1.0500_0.50000.png","A",66,2225292,0.392,"ArrowLeft","arrowleft",0
"S001","Ebbinghaus",0.20566,-0.75,"stimuli/Ebbinghaus_-0.7500_0.20566.png","A",67,2226545,0.41,"ArrowLeft","arrowleft",0
"S001","Ebbinghaus",-0.5,0.75,"stimuli/Ebbinghaus_0.75000_-0.5000.png","A",68,2227965,0.719,"ArrowRight","arrowright",0
"S001","Ebbinghaus",-0.5,0.15,"stimuli/Ebbinghaus_0.15000_-0.5000.png","A",69,2229512,0.423,"ArrowRight","arrowright",0
"S001","Ebbinghaus",-0.20566,0.45,"stimuli/Ebbinghaus_0.45000_-0.20566.png","A",70,2230941,0.527,"ArrowRight","arrowright",0
"S001","Ebbinghaus",0.5,-0.45,"stimuli/Ebbinghaus_-0.4500_0.50000.png","A",71,2232219,0.46,"ArrowLeft","arrowleft",0
"S001","Ebbinghaus",0.3383,1.05,"stimuli/Ebbinghaus_1.05000_0.33830.png","A",72,2233792,0.566,"ArrowLeft","arrowleft",0
"S001","Ebbinghaus",-0.5,1.35,"stimuli/Ebbinghaus_1.35000_-0.5000.png","A",73,2234975,0.694,"ArrowLeft","arrowright",0
"S001","Ebbinghaus",0.09684,-0.45,"stimuli/Ebbinghaus_-0.4500_0.09684.png","A",74,2236531,0.48,"ArrowLeft","arrowleft",0
"S001","Ebbinghaus",0.5,1.35,"stimuli/Ebbinghaus_1.35000_0.50000.png","A",75,2237831,0.429,"ArrowLeft","arrowleft",0
"S001","Ebbinghaus",-0.20566,-1.35,"stimuli/Ebbinghaus_-1.3500_-0.20566.png","A",76,2238958,0.55,"ArrowRight","arrowright",0
"S001","Ebbinghaus",0.5,-0.15,"stimuli/Ebbinghaus_-0.1500_0.50000.png","A",77,2240122,0.453,"ArrowLeft","arrowleft",0
"S001","Ebbinghaus",0.3383,-1.05,"stimuli/Ebbinghaus_-1.0500_0.33830.png","A",78,2241680,0.483,"ArrowLeft","arrowleft",0
"S001","Ebbinghaus",-0.09684,0.45,"stimuli/Ebbinghaus_0.45000_-0.09684.png","A",79,2243181,0.606,"ArrowLeft","arrowright",0
"S001","Ebbinghaus",-0.3383,-1.05,"stimuli/Ebbinghaus_-1.0500_-0.3383.png","A",80,2244557,0.53,"ArrowRight","arrowright",0
"S001","VerticalHorizontal",-0.3,-22.5,"stimuli/VerticalHorizontal_-22.500_-0.3000.png","A",1,2250032,0.539,"ArrowRight","arrowright",0
"S001","VerticalHorizontal",0.3,40.5,"stimuli/VerticalHorizontal_40.5000_0.30000.png","A",2,2251512,0.74,"ArrowLeft","arrowleft",0
"S001","VerticalHorizontal",0.20298,13.5,"stimuli/VerticalHorizontal_13.5000_0.20298.png","A",3,2253107,0.465,"ArrowLeft","arrowleft",0
"S001","VerticalHorizontal",0.12339,-4.5,"stimuli/VerticalHorizontal_-4.5000_0.12339.png","A",4,2254641,0.368,"ArrowLeft","arrowleft",0
"S001","VerticalHorizontal",0.12339,31.5,"stimuli/VerticalHorizontal_31.5000_0.12339.png","A",5,2255969,0.457,"ArrowLeft","arrowleft",0
"S001","VerticalHorizontal",-0.12339,-4.5,"stimuli/VerticalHorizontal_-4.5000_-0.12339.png","A",6,2257493,0.581,"ArrowLeft","arrowright",0
"S001","VerticalHorizontal",0.12339,-13.5,"stimuli/VerticalHorizontal_-13.500_0.12339.png","A",7,2258838,0.514,"ArrowLeft","arrowleft",0
"S001","VerticalHorizontal",-0.12339,31.5,"stimuli/VerticalHorizontal_31.5000_-0.12339.png","A",8,2260377,0.416,"ArrowLeft","arrowright",0
"S001","VerticalHorizontal",-0.20298,40.5,"stimuli/VerticalHorizontal_40.5000_-0.20298.png","A",9,2261824,0.452,"ArrowLeft","arrowright",0
"S001","VerticalHorizontal",0.0581,-31.5,"stimuli/VerticalHorizontal_-31.500_0.05810.png","A",10,2263319,0.379,"ArrowLeft","arrowleft",0
"S001","VerticalHorizontal",0.12339,4.5,"stimuli/VerticalHorizontal_4.50000_0.12339.png","A",11,2264633,0.458,"ArrowRight","arrowleft",0
"S001","VerticalHorizontal",0.0581,4.5,"stimuli/VerticalHorizontal_4.50000_0.05810.png","A",12,2266091,0.484,"ArrowLeft","arrowleft",0
"S001","VerticalHorizontal",0.0581,22.5,"stimuli/VerticalHorizontal_22.5000_0.05810.png","A",13,2267250,0.511,"ArrowRight","arrowleft",0
"S001","VerticalHorizontal",-0.12339,-13.5,"stimuli/VerticalHorizontal_-13.500_-0.12339.png","A",14,2268512,0.433,"ArrowRight","arrowright",0
"S001","VerticalHorizontal",-0.20298,-13.5,"stimuli/VerticalHorizontal_-13.500_-0.20298.png","A",15,2270021,0.366,"ArrowRight","arrowright",0
"S001","VerticalHorizontal",0.3,13.5,"stimuli/VerticalHorizontal_13.5000_0.30000.png","A",16,2271181,0.464,"ArrowLeft","arrowleft",0
"S001","VerticalHorizontal",-0.0581,40.5,"stimuli/VerticalHorizontal_40.5000_-0.0581.png","A",17,2272308,0.486,"ArrowLeft","arrowright",0
"S001","VerticalHorizontal",0.20298,-22.5,"stimuli/VerticalHorizontal_-22.500_0.20298.png","A",18,2273622,0.411,"ArrowLeft","arrowleft",0
"S001","VerticalHorizontal",0.3,-40.5,"stimuli/VerticalHorizontal_-40.500_0.30000.png","A",19,2274973,0.357,"ArrowLeft","arrowleft",0
"S001","VerticalHorizontal",-0.20298,4.5,"stimuli/VerticalHorizontal_4.50000_-0.20298.png","A",20,2276403,0.528,"ArrowRight","arrowright",0
"S001","VerticalHorizontal",-0.12339,4.5,"stimuli/VerticalHorizontal_4.50000_-0.12339.png","A",21,2277736,0.496,"ArrowRight","arrowright",0
"S001","VerticalHorizontal",-0.20298,-22.5,"stimuli/VerticalHorizontal_-22.500_-0.20298.png","A",22,2279123,0.462,"ArrowRight","arrowright",0
"S001","VerticalHorizontal",0.0581,-4.5,"stimuli/VerticalHorizontal_-4.5000_0.05810.png","A",23,2280282,0.513,"ArrowLeft","arrowleft",0
"S001","VerticalHorizontal",0.12339,22.5,"stimuli/VerticalHorizontal_22.5000_0.12339.png","A",24,2281871,0.454,"ArrowLeft","arrowleft",0
"S001","VerticalHorizontal",-0.3,31.5,"stimuli/VerticalHorizontal_31.5000_-0.3000.png","A",25,2283013,0.469,"ArrowRight","arrowright",0
"S001","VerticalHorizontal",-0.0581,4.5,"stimuli/VerticalHorizontal_4.50000_-0.0581.png","A",26,2284131,0.605,"ArrowLeft","arrowright",0
"S001","VerticalHorizontal",-0.0581,-31.5,"stimuli/VerticalHorizontal_-31.500_-0.0581.png","A",27,2285731,0.447,"ArrowRight","arrowright",0
"S001","VerticalHorizontal",-0.0581,-4.5,"stimuli/VerticalHorizontal_-4.5000_-0.0581.png","A",28,2287098,0.543,"ArrowLeft","arrowright",0
"S001","VerticalHorizontal",0.20298,31.5,"stimuli/VerticalHorizontal_31.5000_0.20298.png","A",29,2288348,0.495,"ArrowLeft","arrowleft",0
"S001","VerticalHorizontal",0.0581,31.5,"stimuli/VerticalHorizontal_31.5000_0.05810.png","A",30,2289745,0.386,"ArrowRight","arrowleft",0
"S001","VerticalHorizontal",-0.0581,-13.5,"stimuli/VerticalHorizontal_-13.500_-0.0581.png","A",31,2290798,0.491,"ArrowRight","arrowright",0
"S001","VerticalHorizontal",0.0581,40.5,"stimuli/VerticalHorizontal_40.5000_0.05810.png","A",32,2292171,0.444,"ArrowRight","arrowleft",0
"S001","VerticalHorizontal",-0.3,-40.5,"stimuli/VerticalHorizontal_-40.500_-0.3000.png","A",33,2293516,0.481,"ArrowRight","arrowright",0
"S001","VerticalHorizontal",-0.3,40.5,"stimuli/VerticalHorizontal_40.5000_-0.3000.png","A",34,2294705,0.499,"ArrowLeft","arrowright",0
"S001","VerticalHorizontal",-0.20298,-40.5,"stimuli/VerticalHorizontal_-40.500_-0.20298.png","A",35,2296042,0.347,"ArrowRight","arrowright",0
"S001","VerticalHorizontal",-0.12339,-31.5,"stimuli/VerticalHorizontal_-31.500_-0.12339.png","A",36,2297125,0.331,"ArrowRight","arrowright",0
"S001","VerticalHorizontal",0.20298,-13.5,"stimuli/VerticalHorizontal_-13.500_0.20298.png","A",37,2298413,0.462,"ArrowLeft","arrowleft",0
"S001","VerticalHorizontal",0.20298,22.5,"stimuli/VerticalHorizontal_22.5000_0.20298.png","A",38,2299625,0.436,"ArrowRight","arrowleft",0
"S001","VerticalHorizontal",-0.12339,40.5,"stimuli/VerticalHorizontal_40.5000_-0.12339.png","A",39,2300683,0.473,"ArrowLeft","arrowright",0
"S001","VerticalHorizontal",-0.3,-31.5,"stimuli/VerticalHorizontal_-31.500_-0.3000.png","A",40,2302162,0.415,"ArrowRight","arrowright",0
"S001","VerticalHorizontal",-0.0581,-40.5,"stimuli/VerticalHorizontal_-40.500_-0.0581.png","A",41,2303641,0.317,"ArrowRight","arrowright",0
"S001","VerticalHorizontal",-0.3,13.5,"stimuli/VerticalHorizontal_13.5000_-0.3000.png","A",42,2304663,0.396,"ArrowRight","arrowright",0
"S001","VerticalHorizontal",0.12339,40.5,"stimuli/VerticalHorizontal_40.5000_0.12339.png","A",43,2305728,0.574,"ArrowLeft","arrowleft",0
"S001","VerticalHorizontal",0.3,-13.5,"stimuli/VerticalHorizontal_-13.500_0.30000.png","A",44,2307306,0.493,"ArrowLeft","arrowleft",0
"S001","VerticalHorizontal",0.20298,-31.5,"stimuli/VerticalHorizontal_-31.500_0.20298.png","A",45,2308577,0.353,"ArrowLeft","arrowleft",0
"S001","VerticalHorizontal",0.3,4.5,"stimuli/VerticalHorizontal_4.50000_0.30000.png","A",46,2309686,0.492,"ArrowLeft","arrowleft",0
"S001","VerticalHorizontal",0.12339,-22.5,"stimuli/VerticalHorizontal_-22.500_0.12339.png","A",47,2311257,0.409,"ArrowLeft","arrowleft",0
"S001","VerticalHorizontal",-0.20298,-4.5,"stimuli/VerticalHorizontal_-4.5000_-0.20298.png","A",48,2312599,0.477,"ArrowRight","arrowright",0
"S001","VerticalHorizontal",0.0581,13.5,"stimuli/VerticalHorizontal_13.5000_0.05810.png","A",49,2313825,0.652,"ArrowRight","arrowleft",0
"S001","VerticalHorizontal",-0.20298,13.5,"stimuli/VerticalHorizontal_13.5000_-0.20298.png","A",50,2315586,0.57,"ArrowRight","arrowright",0
"S001","VerticalHorizontal",0.3,-31.5,"stimuli/VerticalHorizontal_-31.500_0.30000.png","A",51,2316918,0.44,"ArrowLeft","arrowleft",0
"S001","VerticalHorizontal",-0.12339,22.5,"stimuli/VerticalHorizontal_22.5000_-0.12339.png","A",52,2318280,0.609,"ArrowRight","arrowright",0
"S001","VerticalHorizontal",0.20298,-40.5,"stimuli/VerticalHorizontal_-40.500_0.20298.png","A",53,2319531,0.663,"ArrowLeft","arrowleft",0
"S001","VerticalHorizontal",-0.20298,31.5,"stimuli/VerticalHorizontal_31.5000_-0.20298.png","A",54,2321148,0.565,"ArrowRight","arrowright",0
"S001","VerticalHorizontal",-0.0581,22.5,"stimuli/VerticalHorizontal_22.5000_-0.0581.png","A",55,2322467,0.573,"ArrowLeft","arrowright",0
"S001","VerticalHorizontal",-0.12339,13.5,"stimuli/VerticalHorizontal_13.5000_-0.12339.png","A",56,2323652,0.473,"ArrowRight","arrowright",0
"S001","VerticalHorizontal",0.3,31.5,"stimuli/VerticalHorizontal_31.5000_0.30000.png","A",57,2324971,0.503,"ArrowLeft","arrowleft",0
"S001","VerticalHorizontal",-0.20298,22.5,"stimuli/VerticalHorizontal_22.5000_-0.20298.png","A",58,2326118,0.471,"ArrowRight","arrowright",0
"S001","VerticalHorizontal",-0.3,-4.5,"stimuli/VerticalHorizontal_-4.5000_-0.3000.png","A",59,2327325,0.468,"ArrowRight","arrowright",0
"S001","VerticalHorizontal",0.3,-22.5,"stimuli/VerticalHorizontal_-22.500_0.30000.png","A",60,2328701,0.41,"ArrowLeft","arrowleft",0
"S001","VerticalHorizontal",0.3,-4.5,"stimuli/VerticalHorizontal_-4.5000_0.30000.png","A",61,2329922,0.385,"ArrowLeft","arrowleft",0
"S001","VerticalHorizontal",0.12339,-31.5,"stimuli/VerticalHorizontal_-31.500_0.12339.png","A",62,2331033,0.471,"ArrowLeft","arrowleft",0
"S001","VerticalHorizontal",0.20298,40.5,"stimuli/VerticalHorizontal_40.5000_0.20298.png","A",63,2332515,0.42,"ArrowRight","arrowleft",0
"S001","VerticalHorizontal",-0.20298,-31.5,"stimuli/VerticalHorizontal_-31.500_-0.20298.png","A",64,2333879,0.435,"ArrowRight","arrowright",0
"S001","VerticalHorizontal",-0.3,22.5,"stimuli/VerticalHorizontal_22.5000_-0.3000.png","A",65,2335365,0.364,"ArrowRight","arrowright",0
"S001","VerticalHorizontal",0.12339,-40.5,"stimuli/VerticalHorizontal_-40.500_0.12339.png","A",66,2336811,0.518,"ArrowLeft","arrowleft",0
"S001","VerticalHorizontal",-0.12339,-40.5,"stimuli/VerticalHorizontal_-40.500_-0.12339.png","A",67,2338268,0.463,"ArrowRight","arrowright",0
"S001","VerticalHorizontal",-0.3,4.5,"stimuli/VerticalHorizontal_4.50000_-0.3000.png","A",68,2339695,0.452,"ArrowRight","arrowright",0
"S001","VerticalHorizontal",-0.0581,13.5,"stimuli/VerticalHorizontal_13.5000_-0.0581.png","A",69,2341075,0.57,"ArrowRight","arrowright",0
"S001","VerticalHorizontal",0.12339,13.5,"stimuli/VerticalHorizontal_13.5000_0.12339.png","A",70,2342359,0.575,"ArrowLeft","arrowleft",0
"S001","VerticalHorizontal",-0.3,-13.5,"stimuli/VerticalHorizontal_-13.500_-0.3000.png","A",71,2343792,0.37,"ArrowRight","arrowright",0
"S001","VerticalHorizontal",0.0581,-22.5,"stimuli/VerticalHorizontal_-22.500_0.05810.png","A",72,2344841,0.461,"ArrowLeft","arrowleft",0
"S001","VerticalHorizontal",-0.12339,-22.5,"stimuli/VerticalHorizontal_-22.500_-0.12339.png","A",73,2346131,0.528,"ArrowRight","arrowright",0
"S001","VerticalHorizontal",0.0581,-13.5,"stimuli/VerticalHorizontal_-13.500_0.05810.png","A",74,2347488,0.511,"ArrowRight","arrowleft",0
"S001","VerticalHorizontal",-0.0581,-22.5,"stimuli/VerticalHorizontal_-22.500_-0.0581.png","A",75,2348996,0.538,"ArrowRight","arrowright",0
"S001","VerticalHorizontal",-0.0581,31.5,"stimuli/VerticalHorizontal_31.5000_-0.0581.png","A",76,2350172,0.493,"ArrowLeft","arrowright",0
"S001","VerticalHorizontal",0.3,22.5,"stimuli/VerticalHorizontal_22.5000_0.30000.png","A",77,2351559,0.47,"ArrowLeft","arrowleft",0
"S001","VerticalHorizontal",0.20298,-4.5,"stimuli/VerticalHorizontal_-4.5000_0.20298.png","A",78,2352955,0.881,"ArrowLeft","arrowleft",0
"S001","VerticalHorizontal",0.20298,4.5,"stimuli/VerticalHorizontal_4.50000_0.20298.png","A",79,2354662,0.46,"ArrowLeft","arrowleft",0
"S001","VerticalHorizontal",0.0581,-40.5,"stimuli/VerticalHorizontal_-40.500_0.05810.png","A",80,2356125,0.434,"ArrowLeft","arrowleft",0
"S002","MullerLyer",0.37364,30,"stimuli/MullerLyer_30.0000_0.37364.png","B",1,1649571,0.458,"ArrowUp","arrowup",0
"S002","MullerLyer",-0.37364,30,"stimuli/MullerLyer_30.0000_-0.37364.png","B",2,1650818,0.474,"ArrowUp","arrowdown",0
"S002","MullerLyer",0.1337,-18,"stimuli/MullerLyer_-18.000_0.13370.png","B",3,1652181,0.46,"ArrowUp","arrowup",0
"S002","MullerLyer",-0.045,-24,"stimuli/MullerLyer_-24.000_-0.0450.png","B",4,1653317,0.454,"ArrowDown","arrowdown",0
"S002","MullerLyer",0.045,-30,"stimuli/MullerLyer_-30.000_0.04500.png","B",5,1654539,0.407,"ArrowUp","arrowup",0
"S002","MullerLyer",-0.24183,-6,"stimuli/MullerLyer_-6.0000_-0.24183.png","B",6,1655849,0.465,"ArrowDown","arrowdown",0
"S002","MullerLyer",-0.1337,18,"stimuli/MullerLyer_18.0000_-0.1337.png","B",7,1657198,0.414,"ArrowUp","arrowdown",0
"S002","MullerLyer",0.045,6,"stimuli/MullerLyer_6.00000_0.04500.png","B",8,1658326,0.477,"ArrowDown","arrowup",0
"S002","MullerLyer",-0.24183,30,"stimuli/MullerLyer_30.0000_-0.24183.png","B",9,1659617,0.481,"ArrowUp","arrowdown",0
"S002","MullerLyer",0.37364,-6,"stimuli/MullerLyer_-6.0000_0.37364.png","B",10,1660860,0.427,"ArrowUp","arrowup",0
"S002","MullerLyer",-0.37364,-6,"stimuli/MullerLyer_-6.0000_-0.37364.png","B",11,1662262,0.398,"ArrowDown","arrowdown",0
"S002","MullerLyer",0.1337,-24,"stimuli/MullerLyer_-24.000_0.13370.png","B",12,1663584,0.37,"ArrowUp","arrowup",0
"S002","MullerLyer",0.045,18,"stimuli/MullerLyer_18.0000_0.04500.png","B",13,1664776,0.449,"ArrowDown","arrowup",0
"S002","MullerLyer",-0.1337,-12,"stimuli/MullerLyer_-12.000_-0.1337.png","B",14,1666246,0.504,"ArrowDown","arrowdown",0
"S002","MullerLyer",0.045,24,"stimuli/MullerLyer_24.0000_0.04500.png","B",15,1667622,0.486,"ArrowDown","arrowup",0
"S002","MullerLyer",-0.1337,6,"stimuli/MullerLyer_6.00000_-0.1337.png","B",16,1669207,0.542,"ArrowDown","arrowdown",0
"S002","MullerLyer",0.1337,6,"stimuli/MullerLyer_6.00000_0.13370.png","B",17,1670580,0.439,"ArrowUp","arrowup",0
"S002","MullerLyer",-0.045,-18,"stimuli/MullerLyer_-18.000_-0.0450.png","B",18,1671945,0.467,"ArrowDown","arrowdown",0
"S002","MullerLyer",-0.1337,-24,"stimuli/MullerLyer_-24.000_-0.1337.png","B",19,1673402,0.403,"ArrowDown","arrowdown",0
"S002","MullerLyer",-0.1337,12,"stimuli/MullerLyer_12.0000_-0.1337.png","B",20,1674432,0.491,"ArrowUp","arrowdown",0
"S002","MullerLyer",0.1337,-30,"stimuli/MullerLyer_-30.000_0.13370.png","B",21,1675823,0.439,"ArrowUp","arrowup",0
"S002","MullerLyer",0.37364,-30,"stimuli/MullerLyer_-30.000_0.37364.png","B",22,1677227,0.441,"ArrowUp","arrowup",0
"S002","MullerLyer",-0.045,12,"stimuli/MullerLyer_12.0000_-0.0450.png","B",23,1678372,0.406,"ArrowUp","arrowdown",0
"S002","MullerLyer",-0.045,-6,"stimuli/MullerLyer_-6.0000_-0.0450.png","B",24,1679508,0.55,"ArrowDown","arrowdown",0
"S002","MullerLyer",-0.1337,-30,"stimuli/MullerLyer_-30.000_-0.1337.png","B",25,1680684,0.566,"ArrowDown","arrowdown",0
"S002","MullerLyer",-0.045,6,"stimuli/MullerLyer_6.00000_-0.0450.png","B",26,1681909,0.506,"ArrowUp","arrowdown",0
"S002","MullerLyer",0.1337,18,"stimuli/MullerLyer_18.0000_0.13370.png","B",27,1683479,0.462,"ArrowUp","arrowup",0
"S002","MullerLyer",0.1337,-6,"stimuli/MullerLyer_-6.0000_0.13370.png","B",28,1684862,0.443,"ArrowUp","arrowup",0
"S002","MullerLyer",-0.24183,12,"stimuli/MullerLyer_12.0000_-0.24183.png","B",29,1686181,0.527,"ArrowDown","arrowdown",0
"S002","MullerLyer",0.24183,30,"stimuli/MullerLyer_30.0000_0.24183.png","B",30,1687578,0.445,"ArrowDown","arrowup",0
"S002","MullerLyer",0.24183,6,"stimuli/MullerLyer_6.00000_0.24183.png","B",31,1688744,0.531,"ArrowUp","arrowup",0
"S002","MullerLyer",0.37364,6,"stimuli/MullerLyer_6.00000_0.37364.png","B",32,1690334,0.423,"ArrowUp","arrowup",0
"S002","MullerLyer",0.24183,-18,"stimuli/MullerLyer_-18.000_0.24183.png","B",33,1691701,0.393,"ArrowUp","arrowup",0
"S002","MullerLyer",0.37364,-18,"stimuli/MullerLyer_-18.000_0.37364.png","B",34,1692989,0.43,"ArrowUp","arrowup",0
"S002","MullerLyer",-0.37364,-24,"stimuli/MullerLyer_-24.000_-0.37364.png","B",35,1694050,0.452,"ArrowDown","arrowdown",0
"S002","MullerLyer",-0.24183,-18,"stimuli/MullerLyer_-18.000_-0.24183.png","B",36,1695597,0.436,"ArrowDown","arrowdown",0
"S002","MullerLyer",0.37364,18,"stimuli/MullerLyer_18.0000_0.37364.png","B",37,1696727,0.417,"ArrowUp","arrowup",0
"S002","MullerLyer",-0.37364,-18,"","B",38,1698175,NA,"","arrowdown",0
"S002","MullerLyer",0.24183,-12,"stimuli/MullerLyer_-18.000_-0.37364.png","B",39,1698814,0.744,"ArrowDown","arrowup",0
"S002","MullerLyer",0.045,12,"stimuli/MullerLyer_12.0000_0.04500.png","B",40,1699722,0.318,"ArrowUp","arrowup",0
"S002","MullerLyer",-0.1337,30,"stimuli/MullerLyer_30.0000_-0.1337.png","B",41,1700958,0.489,"ArrowUp","arrowdown",0
"S002","MullerLyer",-0.1337,-6,"stimuli/MullerLyer_-6.0000_-0.1337.png","B",42,1702518,0.517,"ArrowDown","arrowdown",0
"S002","MullerLyer",0.1337,-12,"stimuli/MullerLyer_-12.000_0.13370.png","B",43,1703664,0.424,"ArrowUp","arrowup",0
"S002","MullerLyer",-0.045,30,"stimuli/MullerLyer_30.0000_-0.0450.png","B",44,1704735,0.455,"ArrowUp","arrowdown",0
"S002","MullerLyer",0.24183,24,"stimuli/MullerLyer_24.0000_0.24183.png","B",45,1706070,0.555,"ArrowDown","arrowup",0
"S002","MullerLyer",-0.24183,24,"stimuli/MullerLyer_24.0000_-0.24183.png","B",46,1707548,0.351,"ArrowUp","arrowdown",0
"S002","MullerLyer",-0.37364,12,"stimuli/MullerLyer_12.0000_-0.37364.png","B",47,1708981,0.523,"ArrowDown","arrowdown",0
"S002","MullerLyer",0.045,-24,"stimuli/MullerLyer_-24.000_0.04500.png","B",48,1710396,0.43,"ArrowUp","arrowup",0
"S002","MullerLyer",0.1337,24,"stimuli/MullerLyer_24.0000_0.13370.png","B",49,1711752,0.551,"ArrowDown","arrowup",0
"S002","MullerLyer",0.37364,24,"stimuli/MullerLyer_24.0000_0.37364.png","B",50,1712983,0.454,"ArrowUp","arrowup",0
"S002","MullerLyer",0.1337,30,"stimuli/MullerLyer_30.0000_0.13370.png","B",51,1714271,0.47,"ArrowDown","arrowup",0
"S002","MullerLyer",0.24183,-24,"stimuli/MullerLyer_-24.000_0.24183.png","B",52,1715456,0.471,"ArrowUp","arrowup",0
"S002","MullerLyer",-0.37364,24,"stimuli/MullerLyer_24.0000_-0.37364.png","B",53,1716757,0.574,"ArrowDown","arrowdown",0
"S002","MullerLyer",-0.1337,-18,"stimuli/MullerLyer_-18.000_-0.1337.png","B",54,1718151,0.395,"ArrowUp","arrowdown",0
"S002","MullerLyer",0.37364,-12,"stimuli/MullerLyer_-12.000_0.37364.png","B",55,1719311,0.493,"ArrowUp","arrowup",0
"S002","MullerLyer",0.1337,12,"stimuli/MullerLyer_12.0000_0.13370.png","B",56,1720891,0.515,"ArrowDown","arrowup",0
"S002","MullerLyer",0.045,-12,"stimuli/MullerLyer_-12.000_0.04500.png","B",57,1722273,0.487,"ArrowUp","arrowup",0
"S002","MullerLyer",0.24183,-6,"stimuli/MullerLyer_-6.0000_0.24183.png","B",58,1723374,0.467,"ArrowUp","arrowup",0
"S002","MullerLyer",-0.045,-30,"stimuli/MullerLyer_-30.000_-0.0450.png","B",59,1724707,0.469,"ArrowDown","arrowdown",0
"S002","MullerLyer",-0.045,-12,"stimuli/MullerLyer_-12.000_-0.0450.png","B",60,1726245,0.475,"ArrowDown","arrowdown",0
"S002","MullerLyer",0.24183,12,"stimuli/MullerLyer_12.0000_0.24183.png","B",61,1727528,0.502,"ArrowDown","arrowup",0
"S002","MullerLyer",-0.24183,6,"stimuli/MullerLyer_6.00000_-0.24183.png","B",62,1728868,0.562,"ArrowDown","arrowdown",0
"S002","MullerLyer",-0.37364,-12,"stimuli/MullerLyer_-12.000_-0.37364.png","B",63,1730252,0.52,"ArrowDown","arrowdown",0
"S002","MullerLyer",-0.24183,-30,"stimuli/MullerLyer_-30.000_-0.24183.png","B",64,1731441,0.456,"ArrowDown","arrowdown",0
"S002","MullerLyer",-0.045,24,"stimuli/MullerLyer_24.0000_-0.0450.png","B",65,1732722,0.456,"ArrowUp","arrowdown",0
"S002","MullerLyer",-0.1337,24,"stimuli/MullerLyer_24.0000_-0.1337.png","B",66,1733872,0.442,"ArrowUp","arrowdown",0
"S002","MullerLyer",-0.24183,18,"stimuli/MullerLyer_18.0000_-0.24183.png","B",67,1734932,0.51,"ArrowUp","arrowdown",0
"S002","MullerLyer",0.37364,12,"stimuli/MullerLyer_12.0000_0.37364.png","B",68,1736095,0.484,"ArrowUp","arrowup",0
"S002","MullerLyer",0.045,-6,"stimuli/MullerLyer_-6.0000_0.04500.png","B",69,1737416,0.47,"ArrowUp","arrowup",0
"S002","MullerLyer",-0.37364,6,"stimuli/MullerLyer_6.00000_-0.37364.png","B",70,1738495,0.564,"ArrowDown","arrowdown",0
"S002","MullerLyer",0.045,-18,"stimuli/MullerLyer_-18.000_0.04500.png","B",71,1739997,0.449,"ArrowUp","arrowup",0
"S002","MullerLyer",-0.045,18,"stimuli/MullerLyer_18.0000_-0.0450.png","B",72,1741262,0.518,"ArrowUp","arrowdown",0
"S002","MullerLyer",0.37364,-24,"stimuli/MullerLyer_-24.000_0.37364.png","B",73,1742736,0.468,"ArrowUp","arrowup",0
"S002","MullerLyer",-0.24183,-24,"stimuli/MullerLyer_-24.000_-0.24183.png","B",74,1744053,0.466,"ArrowDown","arrowdown",0
"S002","MullerLyer",0.045,30,"stimuli/MullerLyer_30.0000_0.04500.png","B",75,1745363,0.539,"ArrowDown","arrowup",0
"S002","MullerLyer",-0.24183,-12,"stimuli/MullerLyer_-12.000_-0.24183.png","B",76,1746678,0.652,"ArrowDown","arrowdown",0
"S002","MullerLyer",-0.37364,-30,"stimuli/MullerLyer_-30.000_-0.37364.png","B",77,1748392,0.456,"ArrowDown","arrowdown",0
"S002","MullerLyer",0.24183,-30,"stimuli/MullerLyer_-30.000_0.24183.png","B",78,1749872,0.446,"ArrowUp","arrowup",0
"S002","MullerLyer",-0.37364,18,"stimuli/MullerLyer_18.0000_-0.37364.png","B",79,1750962,0.553,"ArrowDown","arrowdown",0
"S002","MullerLyer",0.24183,18,"stimuli/MullerLyer_18.0000_0.24183.png","B",80,1752233,0.653,"ArrowUp","arrowup",0
"S002","Ebbinghaus",-0.41515,1.2,"stimuli/Ebbinghaus_1.20000_-0.41515.png","B",1,1761773,0.402,"ArrowRight","arrowright",0
"S002","Ebbinghaus",0.14856,-0.3,"stimuli/Ebbinghaus_-0.3000_0.14856.png","B",2,1763073,0.479,"ArrowLeft","arrowleft",0
"S002","Ebbinghaus",-0.41515,-1.2,"stimuli/Ebbinghaus_-1.2000_-0.41515.png","B",3,1764575,0.435,"ArrowLeft","arrowright",0
"S002","Ebbinghaus",-0.14856,0.3,"stimuli/Ebbinghaus_0.30000_-0.14856.png","B",4,1765746,0.545,"ArrowLeft","arrowright",0
"S002","Ebbinghaus",0.41515,-0.3,"stimuli/Ebbinghaus_-0.3000_0.41515.png","B",5,1767090,0.535,"ArrowLeft","arrowleft",0
"S002","Ebbinghaus",-0.2687,-0.6,"stimuli/Ebbinghaus_-0.6000_-0.2687.png","B",6,1768527,0.589,"ArrowRight","arrowright",0
"S002","Ebbinghaus",-0.05,-1.2,"stimuli/Ebbinghaus_-1.2000_-0.0500.png","B",7,1769736,0.429,"ArrowLeft","arrowright",0
"S002","Ebbinghaus",0.41515,-0.6,"stimuli/Ebbinghaus_-0.6000_0.41515.png","B",8,1771081,0.47,"ArrowLeft","arrowleft",0
"S002","Ebbinghaus",0.2687,-1.2,"stimuli/Ebbinghaus_-1.2000_0.26870.png","B",9,1772457,0.419,"ArrowRight","arrowleft",0
"S002","Ebbinghaus",0.41515,0.9,"stimuli/Ebbinghaus_0.90000_0.41515.png","B",10,1773529,0.577,"ArrowLeft","arrowleft",0
"S002","Ebbinghaus",0.14856,-1.5,"stimuli/Ebbinghaus_-1.5000_0.14856.png","B",11,1774958,0.425,"ArrowRight","arrowleft",0
"S002","Ebbinghaus",0.41515,-0.9,"stimuli/Ebbinghaus_-0.9000_0.41515.png","B",12,1776431,0.526,"ArrowLeft","arrowleft",0
"S002","Ebbinghaus",0.41515,-1.5,"stimuli/Ebbinghaus_-1.5000_0.41515.png","B",13,1777742,0.566,"ArrowLeft","arrowleft",0
"S002","Ebbinghaus",-0.41515,1.5,"stimuli/Ebbinghaus_1.50000_-0.41515.png","B",14,1779093,0.748,"ArrowRight","arrowright",0
"S002","Ebbinghaus",-0.14856,0.6,"stimuli/Ebbinghaus_0.60000_-0.14856.png","B",15,1780662,0.803,"ArrowRight","arrowright",0
"S002","Ebbinghaus",-0.41515,0.9,"stimuli/Ebbinghaus_0.90000_-0.41515.png","B",16,1782477,0.484,"ArrowRight","arrowright",0
"S002","Ebbinghaus",0.2687,0.9,"stimuli/Ebbinghaus_0.90000_0.26870.png","B",17,1783821,0.48,"ArrowLeft","arrowleft",0
"S002","Ebbinghaus",0.14856,-0.6,"stimuli/Ebbinghaus_-0.6000_0.14856.png","B",18,1784997,0.589,"ArrowLeft","arrowleft",0
"S002","Ebbinghaus",-0.05,-0.3,"stimuli/Ebbinghaus_-0.3000_-0.0500.png","B",19,1786355,0.468,"ArrowLeft","arrowright",0
"S002","Ebbinghaus",-0.05,-0.9,"stimuli/Ebbinghaus_-0.9000_-0.0500.png","B",20,1787460,0.689,"ArrowRight","arrowright",0
"S002","Ebbinghaus",0.2687,0.6,"stimuli/Ebbinghaus_0.60000_0.26870.png","B",21,1788882,0.467,"ArrowLeft","arrowleft",0
"S002","Ebbinghaus",0.2687,-0.3,"stimuli/Ebbinghaus_-0.3000_0.26870.png","B",22,1790241,0.585,"ArrowLeft","arrowleft",0
"S002","Ebbinghaus",0.05,-0.9,"stimuli/Ebbinghaus_-0.9000_0.05000.png","B",23,1791686,0.441,"ArrowRight","arrowleft",0
"S002","Ebbinghaus",-0.05,-1.5,"stimuli/Ebbinghaus_-1.5000_-0.0500.png","B",24,1793146,0.578,"ArrowRight","arrowright",0
"S002","Ebbinghaus",-0.2687,0.3,"stimuli/Ebbinghaus_0.30000_-0.2687.png","B",25,1794743,0.58,"ArrowRight","arrowright",0
"S002","Ebbinghaus",0.41515,0.3,"stimuli/Ebbinghaus_0.30000_0.41515.png","B",26,1796277,0.473,"ArrowLeft","arrowleft",0
"S002","Ebbinghaus",0.05,-0.6,"stimuli/Ebbinghaus_-0.6000_0.05000.png","B",27,1797407,0.603,"ArrowLeft","arrowleft",0
"S002","Ebbinghaus",0.41515,0.6,"stimuli/Ebbinghaus_0.60000_0.41515.png","B",28,1799055,0.442,"ArrowLeft","arrowleft",0
"S002","Ebbinghaus",-0.14856,-0.3,"stimuli/Ebbinghaus_-0.3000_-0.14856.png","B",29,1800506,0.558,"ArrowRight","arrowright",0
"S002","Ebbinghaus",-0.2687,0.9,"stimuli/Ebbinghaus_0.90000_-0.2687.png","B",30,1802093,0.404,"ArrowRight","arrowright",0
"S002","Ebbinghaus",0.05,1.5,"stimuli/Ebbinghaus_1.50000_0.05000.png","B",31,1803517,0.617,"ArrowRight","arrowleft",0
"S002","Ebbinghaus",0.2687,1.5,"stimuli/Ebbinghaus_1.50000_0.26870.png","B",32,1805171,0.451,"ArrowLeft","arrowleft",0
"S002","Ebbinghaus",0.05,-1.2,"stimuli/Ebbinghaus_-1.2000_0.05000.png","B",33,1806556,0.554,"ArrowLeft","arrowleft",0
"S002","Ebbinghaus",-0.2687,-1.5,"stimuli/Ebbinghaus_-1.5000_-0.2687.png","B",34,1807987,0.527,"ArrowRight","arrowright",0
"S002","Ebbinghaus",-0.2687,-0.9,"stimuli/Ebbinghaus_-0.9000_-0.2687.png","B",35,1809424,0.572,"ArrowRight","arrowright",0
"S002","Ebbinghaus",0.05,-1.5,"stimuli/Ebbinghaus_-1.5000_0.05000.png","B",36,1810698,0.559,"ArrowLeft","arrowleft",0
"S002","Ebbinghaus",0.14856,-1.2,"stimuli/Ebbinghaus_-1.2000_0.14856.png","B",37,1812297,0.572,"ArrowLeft","arrowleft",0
"S002","Ebbinghaus",-0.14856,1.2,"stimuli/Ebbinghaus_1.20000_-0.14856.png","B",38,1813474,0.72,"ArrowLeft","arrowright",0
"S002","Ebbinghaus",-0.41515,-1.5,"stimuli/Ebbinghaus_-1.5000_-0.41515.png","B",39,1815067,0.513,"ArrowRight","arrowright",0
"S002","Ebbinghaus",0.14856,0.3,"stimuli/Ebbinghaus_0.30000_0.14856.png","B",40,1816325,0.836,"ArrowRight","arrowleft",0
"S002","Ebbinghaus",0.14856,-0.9,"stimuli/Ebbinghaus_-0.9000_0.14856.png","B",41,1817811,0.618,"ArrowLeft","arrowleft",0
"S002","Ebbinghaus",0.2687,-0.9,"stimuli/Ebbinghaus_-0.9000_0.26870.png","B",42,1819359,0.559,"ArrowLeft","arrowleft",0
"S002","Ebbinghaus",-0.2687,0.6,"stimuli/Ebbinghaus_0.60000_-0.2687.png","B",43,1820739,0.705,"ArrowLeft","arrowright",0
"S002","Ebbinghaus",-0.2687,-0.3,"stimuli/Ebbinghaus_-0.3000_-0.2687.png","B",44,1822112,0.736,"ArrowRight","arrowright",0
"S002","Ebbinghaus",0.2687,0.3,"stimuli/Ebbinghaus_0.30000_0.26870.png","B",45,1823744,0.722,"ArrowLeft","arrowleft",0
"S002","Ebbinghaus",0.05,0.3,"stimuli/Ebbinghaus_0.30000_0.05000.png","B",46,1825406,0.828,"ArrowRight","arrowleft",0
"S002","Ebbinghaus",0.05,0.6,"stimuli/Ebbinghaus_0.60000_0.05000.png","B",47,1827031,0.653,"ArrowRight","arrowleft",0
"S002","Ebbinghaus",-0.2687,1.2,"stimuli/Ebbinghaus_1.20000_-0.2687.png","B",48,1828566,0.755,"ArrowRight","arrowright",0
"S002","Ebbinghaus",0.05,1.2,"stimuli/Ebbinghaus_1.20000_0.05000.png","B",49,1830114,0.68,"ArrowRight","arrowleft",0
"S002","Ebbinghaus",0.05,0.9,"stimuli/Ebbinghaus_0.90000_0.05000.png","B",50,1831546,0.826,"ArrowLeft","arrowleft",0
"S002","Ebbinghaus",-0.41515,0.6,"stimuli/Ebbinghaus_0.60000_-0.41515.png","B",51,1832978,0.772,"ArrowRight","arrowright",0
"S002","Ebbinghaus",-0.14856,1.5,"stimuli/Ebbinghaus_1.50000_-0.14856.png","B",52,1834681,0.633,"ArrowLeft","arrowright",0
"S002","Ebbinghaus",0.14856,0.6,"stimuli/Ebbinghaus_0.60000_0.14856.png","B",53,1836099,0.957,"ArrowLeft","arrowleft",0
"S002","Ebbinghaus",-0.05,0.6,"stimuli/Ebbinghaus_0.60000_-0.0500.png","B",54,1837961,0.672,"ArrowLeft","arrowright",0
"S002","Ebbinghaus",-0.05,-0.6,"stimuli/Ebbinghaus_-0.6000_-0.0500.png","B",55,1839429,0.68,"ArrowRight","arrowright",0
"S002","Ebbinghaus",0.2687,-1.5,"stimuli/Ebbinghaus_-1.5000_0.26870.png","B",56,1840856,0.541,"ArrowLeft","arrowleft",0
"S002","Ebbinghaus",-0.41515,-0.6,"stimuli/Ebbinghaus_-0.6000_-0.41515.png","B",57,1842034,0.525,"ArrowRight","arrowright",0
"S002","Ebbinghaus",-0.05,1.2,"stimuli/Ebbinghaus_1.20000_-0.0500.png","B",58,1843658,0.585,"ArrowLeft","arrowright",0
"S002","Ebbinghaus",-0.14856,-0.6,"stimuli/Ebbinghaus_-0.6000_-0.14856.png","B",59,1845252,0.546,"ArrowRight","arrowright",0
"S002","Ebbinghaus",-0.41515,0.3,"stimuli/Ebbinghaus_0.30000_-0.41515.png","B",60,1846561,0.462,"ArrowRight","arrowright",0
"S002","Ebbinghaus",-0.2687,1.5,"stimuli/Ebbinghaus_1.50000_-0.2687.png","B",61,1847750,0.599,"ArrowLeft","arrowright",0
"S002","Ebbinghaus",0.41515,1.5,"stimuli/Ebbinghaus_1.50000_0.41515.png","B",62,1849299,0.606,"ArrowRight","arrowleft",0
"S002","Ebbinghaus",-0.14856,-1.5,"stimuli/Ebbinghaus_-1.5000_-0.14856.png","B",63,1850740,0.5,"ArrowRight","arrowright",0
"S002","Ebbinghaus",-0.05,0.9,"stimuli/Ebbinghaus_0.90000_-0.0500.png","B",64,1852290,0.509,"ArrowRight","arrowright",0
"S002","Ebbinghaus",-0.05,1.5,"stimuli/Ebbinghaus_1.50000_-0.0500.png","B",65,1853782,0.555,"ArrowLeft","arrowright",0
"S002","Ebbinghaus",-0.14856,-1.2,"stimuli/Ebbinghaus_-1.2000_-0.14856.png","B",66,1855369,0.564,"ArrowRight","arrowright",0
"S002","Ebbinghaus",0.05,-0.3,"stimuli/Ebbinghaus_-0.3000_0.05000.png","B",67,1856911,0.678,"ArrowLeft","arrowleft",0
"S002","Ebbinghaus",0.41515,1.2,"stimuli/Ebbinghaus_1.20000_0.41515.png","B",68,1858586,0.453,"ArrowLeft","arrowleft",0
"S002","Ebbinghaus",0.14856,0.9,"stimuli/Ebbinghaus_0.90000_0.14856.png","B",69,1860058,0.786,"ArrowLeft","arrowleft",0
"S002","Ebbinghaus",-0.2687,-1.2,"stimuli/Ebbinghaus_-1.2000_-0.2687.png","B",70,1861566,0.558,"ArrowRight","arrowright",0
"S002","Ebbinghaus",-0.14856,0.9,"stimuli/Ebbinghaus_0.90000_-0.14856.png","B",71,1862774,0.622,"ArrowLeft","arrowright",0
"S002","Ebbinghaus",0.14856,1.2,"stimuli/Ebbinghaus_1.20000_0.14856.png","B",72,1864247,0.587,"ArrowRight","arrowleft",0
"S002","Ebbinghaus",0.2687,-0.6,"stimuli/Ebbinghaus_-0.6000_0.26870.png","B",73,1865681,0.598,"ArrowLeft","arrowleft",0
"S002","Ebbinghaus",0.14856,1.5,"stimuli/Ebbinghaus_1.50000_0.14856.png","B",74,1867335,0.544,"ArrowRight","arrowleft",0
"S002","Ebbinghaus",-0.14856,-0.9,"stimuli/Ebbinghaus_-0.9000_-0.14856.png","B",75,1868884,0.568,"ArrowRight","arrowright",0
"S002","Ebbinghaus",0.41515,-1.2,"stimuli/Ebbinghaus_-1.2000_0.41515.png","B",76,1870514,0.519,"ArrowLeft","arrowleft",0
"S002","Ebbinghaus",-0.41515,-0.3,"stimuli/Ebbinghaus_-0.3000_-0.41515.png","B",77,1871697,0.473,"ArrowRight","arrowright",0
"S002","Ebbinghaus",0.2687,1.2,"stimuli/Ebbinghaus_1.20000_0.26870.png","B",78,1873273,0.653,"ArrowRight","arrowleft",0
"S002","Ebbinghaus",-0.41515,-0.9,"stimuli/Ebbinghaus_-0.9000_-0.41515.png","B",79,1874875,0.532,"ArrowRight","arrowright",0
"S002","Ebbinghaus",-0.05,0.3,"stimuli/Ebbinghaus_0.30000_-0.0500.png","B",80,1876171,0.67,"ArrowLeft","arrowright",0
"S002","VerticalHorizontal",-0.03,36,"stimuli/VerticalHorizontal_36.0000_-0.0300.png","B",1,1881674,0.547,"ArrowRight","arrowright",0
"S002","VerticalHorizontal",0.03,9,"stimuli/VerticalHorizontal_9.00000_0.03000.png","B",2,1882995,0.521,"ArrowLeft","arrowleft",0
"S002","VerticalHorizontal",0.16122,-45,"stimuli/VerticalHorizontal_-45.000_0.16122.png","B",3,1884402,0.45,"ArrowLeft","arrowleft",0
"S002","VerticalHorizontal",-0.03,27,"stimuli/VerticalHorizontal_27.0000_-0.0300.png","B",4,1885805,0.443,"ArrowLeft","arrowright",0
"S002","VerticalHorizontal",-0.16122,-45,"stimuli/VerticalHorizontal_-45.000_-0.16122.png","B",5,1887285,0.403,"ArrowRight","arrowright",0
"S002","VerticalHorizontal",0.16122,36,"stimuli/VerticalHorizontal_36.0000_0.16122.png","B",6,1888423,0.487,"ArrowLeft","arrowleft",0
"S002","VerticalHorizontal",-0.08913,18,"stimuli/VerticalHorizontal_18.0000_-0.08913.png","B",7,1889659,0.481,"ArrowRight","arrowright",0
"S002","VerticalHorizontal",0.24909,27,"stimuli/VerticalHorizontal_27.0000_0.24909.png","B",8,1891071,0.452,"ArrowLeft","arrowleft",0
"S002","VerticalHorizontal",-0.03,45,"stimuli/VerticalHorizontal_45.0000_-0.0300.png","B",9,1892265,0.627,"ArrowRight","arrowright",0
"S002","VerticalHorizontal",-0.08913,-36,"stimuli/VerticalHorizontal_-36.000_-0.08913.png","B",10,1893503,0.451,"ArrowRight","arrowright",0
"S002","VerticalHorizontal",0.24909,-45,"stimuli/VerticalHorizontal_-45.000_0.24909.png","B",11,1894788,0.403,"ArrowLeft","arrowleft",0
"S002","VerticalHorizontal",-0.08913,-18,"stimuli/VerticalHorizontal_-18.000_-0.08913.png","B",12,1895905,0.457,"ArrowRight","arrowright",0
"S002","VerticalHorizontal",-0.08913,-45,"stimuli/VerticalHorizontal_-45.000_-0.08913.png","B",13,1897180,0.412,"ArrowRight","arrowright",0
"S002","VerticalHorizontal",-0.08913,27,"stimuli/VerticalHorizontal_27.0000_-0.08913.png","B",14,1898203,0.685,"ArrowRight","arrowright",0
"S002","VerticalHorizontal",0.08913,-45,"stimuli/VerticalHorizontal_-45.000_0.08913.png","B",15,1899569,0.521,"ArrowLeft","arrowleft",0
"S002","VerticalHorizontal",-0.08913,45,"stimuli/VerticalHorizontal_45.0000_-0.08913.png","B",16,1900975,0.52,"ArrowLeft","arrowright",0
"S002","VerticalHorizontal",0.03,-9,"stimuli/VerticalHorizontal_-9.0000_0.03000.png","B",17,1902191,0.753,"ArrowLeft","arrowleft",0
"S002","VerticalHorizontal",-0.24909,-45,"stimuli/VerticalHorizontal_-45.000_-0.24909.png","B",18,1903951,0.416,"ArrowRight","arrowright",0
"S002","VerticalHorizontal",0.24909,-27,"stimuli/VerticalHorizontal_-27.000_0.24909.png","B",19,1905069,0.477,"ArrowLeft","arrowleft",0
"S002","VerticalHorizontal",-0.24909,18,"stimuli/VerticalHorizontal_18.0000_-0.24909.png","B",20,1906159,0.482,"ArrowRight","arrowright",0
"S002","VerticalHorizontal",0.08913,27,"stimuli/VerticalHorizontal_27.0000_0.08913.png","B",21,1907342,0.581,"ArrowLeft","arrowleft",0
"S002","VerticalHorizontal",-0.24909,-27,"stimuli/VerticalHorizontal_-27.000_-0.24909.png","B",22,1908779,0.338,"ArrowRight","arrowright",0
"S002","VerticalHorizontal",-0.03,-36,"stimuli/VerticalHorizontal_-36.000_-0.0300.png","B",23,1909841,0.847,"ArrowRight","arrowright",0
"S002","VerticalHorizontal",0.03,-18,"stimuli/VerticalHorizontal_-18.000_0.03000.png","B",24,1911734,0.576,"ArrowLeft","arrowleft",0
"S002","VerticalHorizontal",0.08913,45,"stimuli/VerticalHorizontal_45.0000_0.08913.png","B",25,1913105,0.436,"ArrowRight","arrowleft",0
"S002","VerticalHorizontal",0.16122,45,"stimuli/VerticalHorizontal_45.0000_0.16122.png","B",26,1914399,0.536,"ArrowLeft","arrowleft",0
"S002","VerticalHorizontal",0.24909,-9,"stimuli/VerticalHorizontal_-9.0000_0.24909.png","B",27,1915625,0.479,"ArrowLeft","arrowleft",0
"S002","VerticalHorizontal",-0.03,-45,"stimuli/VerticalHorizontal_-45.000_-0.0300.png","B",28,1916736,0.634,"ArrowRight","arrowright",0
"S002","VerticalHorizontal",-0.24909,45,"stimuli/VerticalHorizontal_45.0000_-0.24909.png","B",29,1918132,0.484,"ArrowRight","arrowright",0
"S002","VerticalHorizontal",-0.16122,-9,"stimuli/VerticalHorizontal_-9.0000_-0.16122.png","B",30,1919688,0.567,"ArrowRight","arrowright",0
"S002","VerticalHorizontal",0.03,-27,"stimuli/VerticalHorizontal_-27.000_0.03000.png","B",31,1921163,0.772,"ArrowRight","arrowleft",0
"S002","VerticalHorizontal",0.16122,-27,"stimuli/VerticalHorizontal_-27.000_0.16122.png","B",32,1922661,0.409,"ArrowLeft","arrowleft",0
"S002","VerticalHorizontal",-0.16122,-36,"stimuli/VerticalHorizontal_-36.000_-0.16122.png","B",33,1923893,0.512,"ArrowRight","arrowright",0
"S002","VerticalHorizontal",-0.16122,36,"stimuli/VerticalHorizontal_36.0000_-0.16122.png","B",34,1925271,0.607,"ArrowRight","arrowright",0
"S002","VerticalHorizontal",-0.16122,45,"stimuli/VerticalHorizontal_45.0000_-0.16122.png","B",35,1926748,0.575,"ArrowLeft","arrowright",0
"S002","VerticalHorizontal",0.08913,-9,"stimuli/VerticalHorizontal_-9.0000_0.08913.png","B",36,1928240,0.646,"ArrowLeft","arrowleft",0
"S002","VerticalHorizontal",0.03,-36,"stimuli/VerticalHorizontal_-36.000_0.03000.png","B",37,1929842,0.692,"ArrowLeft","arrowleft",0
"S002","VerticalHorizontal",0.03,27,"stimuli/VerticalHorizontal_27.0000_0.03000.png","B",38,1931179,0.7,"ArrowLeft","arrowleft",0
"S002","VerticalHorizontal",-0.16122,18,"stimuli/VerticalHorizontal_18.0000_-0.16122.png","B",39,1932959,0.542,"ArrowRight","arrowright",0
"S002","VerticalHorizontal",0.08913,-36,"stimuli/VerticalHorizontal_-36.000_0.08913.png","B",40,1934592,0.545,"ArrowLeft","arrowleft",0
"S002","VerticalHorizontal",-0.24909,-9,"stimuli/VerticalHorizontal_-9.0000_-0.24909.png","B",41,1936092,0.44,"ArrowRight","arrowright",0
"S002","VerticalHorizontal",-0.08913,36,"stimuli/VerticalHorizontal_36.0000_-0.08913.png","B",42,1937497,0.546,"ArrowLeft","arrowright",0
"S002","VerticalHorizontal",-0.24909,-18,"stimuli/VerticalHorizontal_-18.000_-0.24909.png","B",43,1939054,0.331,"ArrowRight","arrowright",0
"S002","VerticalHorizontal",-0.08913,-27,"stimuli/VerticalHorizontal_-27.000_-0.08913.png","B",44,1940318,0.495,"ArrowRight","arrowright",0
"S002","VerticalHorizontal",-0.16122,27,"stimuli/VerticalHorizontal_27.0000_-0.16122.png","B",45,1941698,0.533,"ArrowRight","arrowright",0
"S002","VerticalHorizontal",0.03,-45,"stimuli/VerticalHorizontal_-45.000_0.03000.png","B",46,1943008,0.454,"ArrowLeft","arrowleft",0
"S002","VerticalHorizontal",-0.24909,36,"stimuli/VerticalHorizontal_36.0000_-0.24909.png","B",47,1944266,0.583,"ArrowLeft","arrowright",0
"S002","VerticalHorizontal",-0.16122,-27,"stimuli/VerticalHorizontal_-27.000_-0.16122.png","B",48,1945533,0.51,"ArrowRight","arrowright",0
"S002","VerticalHorizontal",-0.03,18,"stimuli/VerticalHorizontal_18.0000_-0.0300.png","B",49,1946872,0.676,"ArrowLeft","arrowright",0
"S002","VerticalHorizontal",-0.08913,-9,"stimuli/VerticalHorizontal_-9.0000_-0.08913.png","B",50,1948605,0.407,"ArrowRight","arrowright",0
"S002","VerticalHorizontal",0.16122,18,"stimuli/VerticalHorizontal_18.0000_0.16122.png","B",51,1949657,0.557,"ArrowLeft","arrowleft",0
"S002","VerticalHorizontal",0.08913,9,"stimuli/VerticalHorizontal_9.00000_0.08913.png","B",52,1950942,0.409,"ArrowRight","arrowleft",0
"S002","VerticalHorizontal",0.08913,36,"stimuli/VerticalHorizontal_36.0000_0.08913.png","B",53,1952146,0.628,"ArrowLeft","arrowleft",0
"S002","VerticalHorizontal",0.24909,36,"stimuli/VerticalHorizontal_36.0000_0.24909.png","B",54,1953512,0.491,"ArrowLeft","arrowleft",0
"S002","VerticalHorizontal",-0.03,-9,"stimuli/VerticalHorizontal_-9.0000_-0.0300.png","B",55,1954773,0.528,"ArrowLeft","arrowright",0
"S002","VerticalHorizontal",0.03,45,"stimuli/VerticalHorizontal_45.0000_0.03000.png","B",56,1955933,0.524,"ArrowLeft","arrowleft",0
"S002","VerticalHorizontal",0.08913,-18,"stimuli/VerticalHorizontal_-18.000_0.08913.png","B",57,1957314,0.461,"ArrowLeft","arrowleft",0
"S002","VerticalHorizontal",-0.03,-27,"stimuli/VerticalHorizontal_-27.000_-0.0300.png","B",58,1958779,0.397,"ArrowRight","arrowright",0
"S002","VerticalHorizontal",0.24909,45,"stimuli/VerticalHorizontal_45.0000_0.24909.png","B",59,1960130,0.582,"ArrowLeft","arrowleft",0
"S002","VerticalHorizontal",0.24909,18,"stimuli/VerticalHorizontal_18.0000_0.24909.png","B",60,1961322,0.529,"ArrowLeft","arrowleft",0
"S002","VerticalHorizontal",-0.24909,9,"stimuli/VerticalHorizontal_9.00000_-0.24909.png","B",61,1962683,0.593,"ArrowRight","arrowright",0
"S002","VerticalHorizontal",0.24909,-18,"stimuli/VerticalHorizontal_-18.000_0.24909.png","B",62,1964051,0.465,"ArrowLeft","arrowleft",0
"S002","VerticalHorizontal",0.24909,-36,"stimuli/VerticalHorizontal_-36.000_0.24909.png","B",63,1965418,0.459,"ArrowLeft","arrowleft",0
"S002","VerticalHorizontal",-0.16122,9,"stimuli/VerticalHorizontal_9.00000_-0.16122.png","B",64,1966795,0.532,"ArrowRight","arrowright",0
"S002","VerticalHorizontal",0.16122,27,"stimuli/VerticalHorizontal_27.0000_0.16122.png","B",65,1967981,0.764,"ArrowLeft","arrowleft",0
"S002","VerticalHorizontal",0.16122,-18,"stimuli/VerticalHorizontal_-18.000_0.16122.png","B",66,1969672,0.467,"ArrowLeft","arrowleft",0
"S002","VerticalHorizontal",0.24909,9,"stimuli/VerticalHorizontal_9.00000_0.24909.png","B",67,1971008,0.572,"ArrowLeft","arrowleft",0
"S002","VerticalHorizontal",-0.03,9,"stimuli/VerticalHorizontal_9.00000_-0.0300.png","B",68,1972573,0.597,"ArrowRight","arrowright",0
"S002","VerticalHorizontal",0.03,36,"stimuli/VerticalHorizontal_36.0000_0.03000.png","B",69,1973936,0.717,"ArrowRight","arrowleft",0
"S002","VerticalHorizontal",0.03,18,"stimuli/VerticalHorizontal_18.0000_0.03000.png","B",70,1975664,0.599,"ArrowLeft","arrowleft",0
"S002","VerticalHorizontal",-0.24909,-36,"stimuli/VerticalHorizontal_-36.000_-0.24909.png","B",71,1976951,0.472,"ArrowRight","arrowright",0
"S002","VerticalHorizontal",0.08913,18,"stimuli/VerticalHorizontal_18.0000_0.08913.png","B",72,1978471,0.658,"ArrowRight","arrowleft",0
"S002","VerticalHorizontal",-0.08913,9,"stimuli/VerticalHorizontal_9.00000_-0.08913.png","B",73,1979754,0.555,"ArrowRight","arrowright",0
"S002","VerticalHorizontal",0.16122,-9,"stimuli/VerticalHorizontal_-9.0000_0.16122.png","B",74,1980938,0.587,"ArrowLeft","arrowleft",0
"S002","VerticalHorizontal",-0.16122,-18,"stimuli/VerticalHorizontal_-18.000_-0.16122.png","B",75,1982343,0.476,"ArrowRight","arrowright",0
"S002","VerticalHorizontal",-0.24909,27,"stimuli/VerticalHorizontal_27.0000_-0.24909.png","B",76,1983909,0.544,"ArrowRight","arrowright",0
"S002","VerticalHorizontal",0.08913,-27,"stimuli/VerticalHorizontal_-27.000_0.08913.png","B",77,1985381,0.533,"ArrowLeft","arrowleft",0
"S002","VerticalHorizontal",-0.03,-18,"stimuli/VerticalHorizontal_-18.000_-0.0300.png","B",78,1986649,0.549,"ArrowRight","arrowright",0
"S002","VerticalHorizontal",0.16122,9,"stimuli/VerticalHorizontal_9.00000_0.16122.png","B",79,1988276,0.502,"ArrowLeft","arrowleft",0
"S002","VerticalHorizontal",0.16122,-36,"stimuli/VerticalHorizontal_-36.000_0.16122.png","B",80,1989563,0.6,"ArrowLeft","arrowleft",0
"S002","MullerLyer",-0.45,15,"stimuli/MullerLyer_15.0000_-0.4500.png","A",1,2159615,0.496,"ArrowDown","arrowdown",0
"S002","MullerLyer",0.08716,-3,"stimuli/MullerLyer_-3.0000_0.08716.png","A",2,2161111,0.43,"ArrowUp","arrowup",0
"S002","MullerLyer",0.30447,-21,"stimuli/MullerLyer_-21.000_0.30447.png","A",3,2162583,0.375,"ArrowUp","arrowup",0
"S002","MullerLyer",-0.45,9,"stimuli/MullerLyer_9.00000_-0.4500.png","A",4,2163794,0.444,"ArrowDown","arrowdown",0
"S002","MullerLyer",-0.18509,27,"stimuli/MullerLyer_27.0000_-0.18509.png","A",5,2164918,0.401,"ArrowUp","arrowdown",0
"S002","MullerLyer",-0.08716,9,"stimuli/MullerLyer_9.00000_-0.08716.png","A",6,2165935,0.439,"ArrowUp","arrowdown",0
"S002","MullerLyer",-0.30447,9,"stimuli/MullerLyer_9.00000_-0.30447.png","A",7,2167370,0.467,"ArrowDown","arrowdown",0
"S002","MullerLyer",0.18509,-27,"stimuli/MullerLyer_-27.000_0.18509.png","A",8,2168628,0.412,"ArrowUp","arrowup",0
"S002","MullerLyer",0.45,-15,"stimuli/MullerLyer_-15.000_0.45000.png","A",9,2169768,0.388,"ArrowUp","arrowup",0
"S002","MullerLyer",0.08716,27,"stimuli/MullerLyer_27.0000_0.08716.png","A",10,2171012,0.411,"ArrowDown","arrowup",0
"S002","MullerLyer",-0.18509,-27,"stimuli/MullerLyer_-27.000_-0.18509.png","A",11,2172475,0.378,"ArrowDown","arrowdown",0
"S002","MullerLyer",0.08716,21,"stimuli/MullerLyer_21.0000_0.08716.png","A",12,2173654,0.476,"ArrowDown","arrowup",0
"S002","MullerLyer",-0.30447,-15,"stimuli/MullerLyer_-15.000_-0.30447.png","A",13,2174859,0.423,"ArrowDown","arrowdown",0
"S002","MullerLyer",-0.45,21,"stimuli/MullerLyer_21.0000_-0.4500.png","A",14,2176050,0.75,"ArrowDown","arrowdown",0
"S002","MullerLyer",0.08716,15,"stimuli/MullerLyer_15.0000_0.08716.png","A",15,2177899,1.015,"ArrowDown","arrowup",0
"S002","MullerLyer",0.45,-3,"stimuli/MullerLyer_-3.0000_0.45000.png","A",16,2179624,0.478,"ArrowUp","arrowup",0
"S002","MullerLyer",-0.30447,-9,"stimuli/MullerLyer_-9.0000_-0.30447.png","A",17,2181015,0.417,"ArrowDown","arrowdown",0
"S002","MullerLyer",-0.18509,-9,"stimuli/MullerLyer_-9.0000_-0.18509.png","A",18,2182532,0.502,"ArrowDown","arrowdown",0
"S002","MullerLyer",0.45,3,"stimuli/MullerLyer_3.00000_0.45000.png","A",19,2183842,0.441,"ArrowUp","arrowup",0
"S002","MullerLyer",0.18509,-21,"stimuli/MullerLyer_-21.000_0.18509.png","A",20,2184955,0.575,"ArrowUp","arrowup",0
"S002","MullerLyer",0.45,-9,"stimuli/MullerLyer_-9.0000_0.45000.png","A",21,2186542,0.421,"ArrowUp","arrowup",0
"S002","MullerLyer",0.45,-21,"stimuli/MullerLyer_-21.000_0.45000.png","A",22,2187687,0.52,"ArrowUp","arrowup",0
"S002","MullerLyer",-0.18509,3,"stimuli/MullerLyer_3.00000_-0.18509.png","A",23,2189099,0.428,"ArrowDown","arrowdown",0
"S002","MullerLyer",-0.30447,3,"stimuli/MullerLyer_3.00000_-0.30447.png","A",24,2190518,0.441,"ArrowDown","arrowdown",0
"S002","MullerLyer",0.18509,21,"stimuli/MullerLyer_21.0000_0.18509.png","A",25,2191654,0.72,"ArrowUp","arrowup",0
"S002","MullerLyer",0.08716,-15,"stimuli/MullerLyer_-15.000_0.08716.png","A",26,2193371,0.491,"ArrowUp","arrowup",0
"S002","MullerLyer",-0.45,3,"stimuli/MullerLyer_3.00000_-0.4500.png","A",27,2194775,0.508,"ArrowDown","arrowdown",0
"S002","MullerLyer",0.30447,-9,"stimuli/MullerLyer_-9.0000_0.30447.png","A",28,2196010,0.471,"ArrowUp","arrowup",0
"S002","MullerLyer",0.18509,-15,"stimuli/MullerLyer_-15.000_0.18509.png","A",29,2197450,0.471,"ArrowUp","arrowup",0
"S002","MullerLyer",0.08716,-9,"stimuli/MullerLyer_-9.0000_0.08716.png","A",30,2198681,0.468,"ArrowUp","arrowup",0
"S002","MullerLyer",0.18509,27,"stimuli/MullerLyer_27.0000_0.18509.png","A",31,2199884,0.494,"ArrowDown","arrowup",0
"S002","MullerLyer",0.30447,-3,"stimuli/MullerLyer_-3.0000_0.30447.png","A",32,2201407,0.415,"ArrowUp","arrowup",0
"S002","MullerLyer",-0.18509,-15,"stimuli/MullerLyer_-15.000_-0.18509.png","A",33,2202916,0.443,"ArrowDown","arrowdown",0
"S002","MullerLyer",-0.08716,15,"stimuli/MullerLyer_15.0000_-0.08716.png","A",34,2204320,0.34,"ArrowUp","arrowdown",0
"S002","MullerLyer",0.18509,9,"stimuli/MullerLyer_9.00000_0.18509.png","A",35,2205589,0.471,"ArrowDown","arrowup",0
"S002","MullerLyer",0.45,-27,"stimuli/MullerLyer_-27.000_0.45000.png","A",36,2206736,0.394,"ArrowUp","arrowup",0
"S002","MullerLyer",0.30447,21,"stimuli/MullerLyer_21.0000_0.30447.png","A",37,2208216,0.73,"ArrowUp","arrowup",0
"S002","MullerLyer",0.30447,9,"stimuli/MullerLyer_9.00000_0.30447.png","A",38,2209614,0.479,"ArrowUp","arrowup",0
"S002","MullerLyer",-0.30447,21,"stimuli/MullerLyer_21.0000_-0.30447.png","A",39,2211031,0.451,"ArrowUp","arrowdown",0
"S002","MullerLyer",-0.45,-15,"stimuli/MullerLyer_-15.000_-0.4500.png","A",40,2212451,0.436,"ArrowDown","arrowdown",0
"S002","MullerLyer",-0.08716,-9,"stimuli/MullerLyer_-9.0000_-0.08716.png","A",41,2213760,0.586,"ArrowDown","arrowdown",0
"S002","MullerLyer",-0.45,-9,"stimuli/MullerLyer_-9.0000_-0.4500.png","A",42,2215101,0.445,"ArrowDown","arrowdown",0
"S002","MullerLyer",0.30447,-27,"stimuli/MullerLyer_-27.000_0.30447.png","A",43,2216398,0.455,"ArrowUp","arrowup",0
"S002","MullerLyer",-0.08716,-3,"stimuli/MullerLyer_-3.0000_-0.08716.png","A",44,2217965,0.416,"ArrowDown","arrowdown",0
"S002","MullerLyer",-0.30447,-21,"stimuli/MullerLyer_-21.000_-0.30447.png","A",45,2219066,0.533,"ArrowDown","arrowdown",0
"S002","MullerLyer",0.18509,15,"stimuli/MullerLyer_15.0000_0.18509.png","A",46,2220422,0.712,"ArrowUp","arrowup",0
"S002","MullerLyer",0.30447,27,"stimuli/MullerLyer_27.0000_0.30447.png","A",47,2221893,0.595,"ArrowDown","arrowup",0
"S002","MullerLyer",0.18509,-3,"stimuli/MullerLyer_-3.0000_0.18509.png","A",48,2223339,0.454,"ArrowUp","arrowup",0
"S002","MullerLyer",0.45,15,"stimuli/MullerLyer_15.0000_0.45000.png","A",49,2224568,0.428,"ArrowUp","arrowup",0
"S002","MullerLyer",-0.08716,27,"stimuli/MullerLyer_27.0000_-0.08716.png","A",50,2225984,0.351,"ArrowUp","arrowdown",0
"S002","MullerLyer",-0.45,-21,"stimuli/MullerLyer_-21.000_-0.4500.png","A",51,2226991,0.499,"ArrowDown","arrowdown",0
"S002","MullerLyer",0.30447,15,"stimuli/MullerLyer_15.0000_0.30447.png","A",52,2228488,0.433,"ArrowUp","arrowup",0
"S002","MullerLyer",0.45,27,"stimuli/MullerLyer_27.0000_0.45000.png","A",53,2229602,0.561,"ArrowUp","arrowup",0
"S002","MullerLyer",0.08716,-27,"stimuli/MullerLyer_-27.000_0.08716.png","A",54,2231043,0.417,"ArrowUp","arrowup",0
"S002","MullerLyer",0.30447,3,"stimuli/MullerLyer_3.00000_0.30447.png","A",55,2232318,0.382,"ArrowUp","arrowup",0
"S002","MullerLyer",0.08716,-21,"stimuli/MullerLyer_-21.000_0.08716.png","A",56,2233620,0.394,"ArrowUp","arrowup",0
"S002","MullerLyer",-0.08716,-27,"stimuli/MullerLyer_-27.000_-0.08716.png","A",57,2234726,0.483,"ArrowDown","arrowdown",0
"S002","MullerLyer",-0.30447,-3,"stimuli/MullerLyer_-3.0000_-0.30447.png","A",58,2236284,0.556,"ArrowDown","arrowdown",0
"S002","MullerLyer",0.08716,9,"stimuli/MullerLyer_9.00000_0.08716.png","A",59,2237593,0.538,"ArrowUp","arrowup",0
"S002","MullerLyer",0.45,21,"stimuli/MullerLyer_21.0000_0.45000.png","A",60,2238973,0.458,"ArrowUp","arrowup",0
"S002","MullerLyer",-0.18509,9,"stimuli/MullerLyer_9.00000_-0.18509.png","A",61,2240340,0.651,"ArrowDown","arrowdown",0
"S002","MullerLyer",-0.30447,15,"stimuli/MullerLyer_15.0000_-0.30447.png","A",62,2241802,0.722,"ArrowDown","arrowdown",0
"S002","MullerLyer",-0.45,27,"stimuli/MullerLyer_27.0000_-0.4500.png","A",63,2243461,0.523,"ArrowDown","arrowdown",0
"S002","MullerLyer",-0.18509,-3,"stimuli/MullerLyer_-3.0000_-0.18509.png","A",64,2244944,0.507,"ArrowDown","arrowdown",0
"S002","MullerLyer",-0.30447,27,"stimuli/MullerLyer_27.0000_-0.30447.png","A",65,2246233,0.697,"ArrowDown","arrowdown",0
"S002","MullerLyer",0.08716,3,"stimuli/MullerLyer_3.00000_0.08716.png","A",66,2247704,0.668,"ArrowDown","arrowup",0
"S002","MullerLyer",0.18509,-9,"stimuli/MullerLyer_-9.0000_0.18509.png","A",67,2249282,0.504,"ArrowUp","arrowup",0
"S002","MullerLyer",-0.45,-3,"stimuli/MullerLyer_-3.0000_-0.4500.png","A",68,2250522,0.475,"ArrowDown","arrowdown",0
"S002","MullerLyer",-0.18509,-21,"stimuli/MullerLyer_-21.000_-0.18509.png","A",69,2251934,0.516,"ArrowDown","arrowdown",0
"S002","MullerLyer",-0.45,-27,"stimuli/MullerLyer_-27.000_-0.4500.png","A",70,2253201,0.495,"ArrowDown","arrowdown",0
"S002","MullerLyer",-0.30447,-27,"stimuli/MullerLyer_-27.000_-0.30447.png","A",71,2254480,0.452,"ArrowDown","arrowdown",0
"S002","MullerLyer",0.18509,3,"stimuli/MullerLyer_3.00000_0.18509.png","A",72,2255600,0.494,"ArrowUp","arrowup",0
"S002","MullerLyer",-0.18509,15,"stimuli/MullerLyer_15.0000_-0.18509.png","A",73,2257178,0.455,"ArrowUp","arrowdown",0
"S002","MullerLyer",-0.08716,-21,"stimuli/MullerLyer_-21.000_-0.08716.png","A",74,2258581,0.852,"ArrowDown","arrowdown",0
"S002","MullerLyer",-0.18509,21,"stimuli/MullerLyer_21.0000_-0.18509.png","A",75,2260293,0.528,"ArrowUp","arrowdown",0
"S002","MullerLyer",-0.08716,3,"stimuli/MullerLyer_3.00000_-0.08716.png","A",76,2261534,0.509,"ArrowDown","arrowdown",0
"S002","MullerLyer",0.45,9,"stimuli/MullerLyer_9.00000_0.45000.png","A",77,2262745,0.465,"ArrowUp","arrowup",0
"S002","MullerLyer",-0.08716,21,"stimuli/MullerLyer_21.0000_-0.08716.png","A",78,2264167,0.489,"ArrowUp","arrowdown",0
"S002","MullerLyer",0.30447,-15,"stimuli/MullerLyer_-15.000_0.30447.png","A",79,2265451,0.439,"ArrowUp","arrowup",0
"S002","MullerLyer",-0.08716,-15,"stimuli/MullerLyer_-15.000_-0.08716.png","A",80,2266862,0.5,"ArrowDown","arrowdown",0
"S002","Ebbinghaus",0.09684,0.45,"stimuli/Ebbinghaus_0.45000_0.09684.png","A",1,2274638,0.431,"ArrowLeft","arrowleft",0
"S002","Ebbinghaus",0.5,-0.45,"stimuli/Ebbinghaus_-0.4500_0.50000.png","A",2,2276064,0.438,"ArrowLeft","arrowleft",0
"S002","Ebbinghaus",-0.5,0.15,"stimuli/Ebbinghaus_0.15000_-0.5000.png","A",3,2277570,0.36,"ArrowRight","arrowright",0
"S002","Ebbinghaus",0.20566,0.45,"stimuli/Ebbinghaus_0.45000_0.20566.png","A",4,2278786,0.417,"ArrowLeft","arrowleft",0
"S002","Ebbinghaus",0.5,1.35,"stimuli/Ebbinghaus_1.35000_0.50000.png","A",5,2280102,0.385,"ArrowLeft","arrowleft",0
